"acc","accuracy","average_response_time","avg_rt","background","baselinetrace","bidi","canvas_backend","clock_backend","color_backend","compensation","coordinates","correct","correct_instructions","count_arithmetic","count_arithmetic_task","count_blank_screen_1","count_blocksequence","count_calc_slope","count_calc_slope_1","count_collect_pupil_trace","count_end_of_experiment","count_end_of_practice","count_experiment","count_fixation_cross","count_fixation_cross_1","count_get_baseline","count_get_baseline_1","count_getdata","count_getdata_1","count_instructions","count_instructions2","count_letter_task_1","count_new_inline_script","count_new_logger","count_new_logger_1","count_new_pygaze_drift_correct","count_new_pygaze_drift_correct_1","count_new_pygaze_log","count_new_pygaze_log_2","count_new_pygaze_start_recording","count_new_pygaze_start_recording_1","count_new_pygaze_stop_recording","count_new_pygaze_stop_recording_1","count_practice_instructions","count_pygaze_init","count_reset_feedback","count_reversal","count_test","count_test1","count_training","count_trial_sequence","count_trial_sequence_1","datetime","description","difficulty","disable_garbage_collection","experiment_file","experiment_path","font_bold","font_family","font_italic","font_size","font_underline","foreground","form_clicks","form_response","fullscreen","height","keyboard_backend","live_row","live_row_arithmetic","live_row_training","logfile","mouse_backend","new_column_1","opensesame_codename","opensesame_version","practice","pupilsizes","question_no","repeat_cycle","response","response_end_of_experiment","response_end_of_practice","response_instructions","response_time","response_time_end_of_experiment","response_time_end_of_practice","response_time_instructions","result","round_decimals","sampler_backend","slope","sound_buf_size","sound_channels","sound_freq","sound_sample_size","start","str_baseline","str_pupilsizes","subject_nr","subject_parity","t0","t1","t2","tasktype","time_arithmetic","time_arithmetic_task","time_blank_screen_1","time_blocksequence","time_calc_slope","time_calc_slope_1","time_collect_pupil_trace","time_end_of_experiment","time_end_of_practice","time_experiment","time_fixation_cross","time_fixation_cross_1","time_get_baseline","time_get_baseline_1","time_getdata","time_getdata_1","time_instructions","time_instructions2","time_letter_task_1","time_new_inline_script","time_new_logger","time_new_logger_1","time_new_pygaze_drift_correct","time_new_pygaze_drift_correct_1","time_new_pygaze_log","time_new_pygaze_log_2","time_new_pygaze_start_recording","time_new_pygaze_start_recording_1","time_new_pygaze_stop_recording","time_new_pygaze_stop_recording_1","time_practice_instructions","time_pygaze_init","time_reset_feedback","time_reversal","time_test","time_test1","time_training","time_trial_sequence","time_trial_sequence_1","title","total_correct","total_response_time","total_responses","uniform_coordinates","width"
"undefined","undefined","undefined","undefined","black","[ 2831.  2828.  2822.  2819.  2814.  2808.  2798.  2788.  2783.  2770.
  2764.  2750.  2743.  2733.  2722.  2712.  2702.  2692.  2678.  2674.
  2665.  2651.  2642.  2631.  2622.  2619.  2608.  2603.  2602.  2596.
  2591.  2592.  2584.  2586.  2585.  2582.  2582.  2580.  2580.  2582.
  2580.  2580.  2579.  2580.  2580.  2583.  2584.  2589.  2590.  2590.
  2593.  2597.  2600.  2603.  2604.  2606.  2610.  2616.  2620.  2622.
  2626.  2631.  2628.  2636.  2642.  2644.  2646.  2651.  2655.  2663.
  2670.  2670.  2670.  2674.  2680.]","yes","xpyriment","legacy","legacy","0","uniform","undefined","undefined","0","0","NA","0","0","NA","0","0","0","0","0","NA","0","NA","0","NA","0","0","NA","NA","0","NA","0","NA","0","NA","0","NA","0","NA","0","0","0","0","NA","NA","0","0","NA","10/18/18 15:06:02","A template containing a practice and an experimental phase","hard","yes","Experiment.osexp","C:\Users\EEGExp\Desktop","no","mono","no","18","no","white","no","Ok","yes","768","legacy","0","0","0","C:/Users/EEGExp/Desktop/subject-11.csv","xpyriment","","Kafkaesque Koffka","3.2.5","yes","[ 2685.  2687.  2692.  2697.  2696.  2699.  2699.  2706.  2706.  2705.
  2708.  2709.  2710.  2712.  2711.  2715.  2714.  2715.  2716.  2715.
  2718.  2716.  2718.  2715.  2718.  2715.  2715.  2714.  2715.  2718.
  2715.  2720.  2722.  2720.  2726.  2725.  2726.  2731.  2728.  2747.
  2741.  2742.  2745.  2746.  2754.  2751.  2756.  2758.  2762.  2766.
  2771.  2774.  2781.  2787.  2792.  2797.  2799.  2808.  2805.  2808.
  2815.  2819.  2823.  2823.  2823.  2827.  2828.  2827.  2827.  2836.
  2834.  2829.  2828.  2832.  2831.  2831.  2833.  2834.  2831.  2835.
  2838.  2839.  2844.  2842.  2845.  2849.  2850.  2854.  2857.  2858.
  2863.  2868.  2870.  2878.  2883.  2885.  2886.  2890.  2895.  2905.
  2915.  2919.  2926.  2935.  2939.  2943.  2954.  2956.  2971.  2969.
  2975.  2986.  2992.  3003.  3012.  3015.  3021.  3027.  3032.  3037.
  3036.  3036.  3041.  3044.  3051.  3047.  3046.  3045.  3045.  3043.
  3043.  3037.  3034.  3029.  3024.  3022.  3016.  3015.  3012.  3004.
  3006.  3006.  3001.  2988.  2988.  2989.  2980.  2977.  2969.  2968.
  2962.  2966.  2959.  2951.  2951.  2948.  2948.  2942.  2940.  2936.
  2940.  2938.  2936.  2933.  2932.  2931.  2927.  2934.  2933.  2933.
  2931.  2933.  2932.  2935.  2937.  2942.  2947.  2946.  2953.  2948.
  2954.  2958.  2956.  2965.  2970.  2976.  2975.  2979.  2980.  2982.
  2986.  3009.  3044.  2792.  2495.  1915.  1124.   469.   390.   367.
   408.  1082.  1227.  1368.  1988.  2199.  2428.  2591.  2734.  2813.
  2907.  2992.  3107.  3124.  3120.  3076.  3072.  3076.  3088.  3083.
  3081.  3076.  3076.  3079.  3078.  3083.  3092.  3082.  3083.  3084.
  3078.  3088.  3084.  3083.  3084.  3081.  3075.  3072.  3059.  3059.
  3058.  3055.  3059.  3063.  3055.  3056.  3056.  3060.  3060.  3053.
  3051.  3046.  3050.  3044.  3070.  3070.  2905.  2616.  2073.  1204.
   382.   414.  1094.  1377.  2197.  2538.  2764.  2880.  3032.  3119.
  3081.  3088.  3097.  3087.  3079.  3058.  3063.  3062.  3064.  3063.
  3069.  3069.  3066.  3074.  3079.  3102.  3108.  3102.  3107.  3086.
  3075.  3070.  3074.  3068.  3073.  3075.  3075.  3073.  3073.  3070.
  3070.  3068.  3066.  3062.  3063.  3060.  3052.  3053.  3049.  3049.
  3050.  3049.  3044.  3051.  3044.  3046.  3059.  3059.  3058.  3060.
  3058.  3060.  3060.  3063.  3060.  3060.  3063.  3065.  3061.  3059.
  3061.  3058.  3057.  3057.  3056.  3054.  3052.  3053.  3053.  3052.
  3048.  3048.  3047.  3040.  3042.  3042.  3043.  3044.  3051.  3045.
  3050.  3045.  3041.  3039.  3038.  3043.  3045.  3049.  3047.  3047.
  3056.  3062.  3063.  3068.  3077.  3081.  3081.  3086.  3091.  3092.
  3097.  3104.  3104.  3108.  3112.  3118.  3120.  3125.  3133.  3140.
  3144.  3153.  3154.  3153.  3165.  3161.  3159.  3164.  3166.  3173.
  3174.  3181.  3183.  3186.  3191.  3193.  3201.  3203.  3212.  3217.
  3221.  3223.  3230.  3233.  3236.  3242.  3246.  3245.  3243.  3251.
  3252.  3254.  3268.  3264.  3267.  3270.  3278.  3276.  3275.  3278.
  3278.  3287.  3294.  3288.  3289.  3289.  3285.  3285.  3289.  3282.
  3277.  3275.  3271.  3262.  3267.  3264.  3268.  3263.  3262.  3264.
  3257.  3255.  3248.  3247.  3247.  3246.  3243.  3239.  3244.  3241.
  3244.  3244.  3245.  3242.  3241.  3240.  3241.  3238.  3235.  3234.
  3234.  3235.  3232.  3232.  3230.  3232.  3223.  3227.  3222.  3222.
  3221.  3225.  3223.  3222.  3222.  3216.  3224.  3220.  3218.  3218.
  3214.  3214.  3217.  3218.  3219.  3212.]","3x - 8 = 7","0","return","NA","NA","return","1134","NA","NA","1134","LinregressResult(slope=1.1135405747343625, intercept=2677.8034873361335, rvalue=0.38605791943992673, pvalue=1.012988376019523e-18, stderr=0.12094426783684352)","2","legacy","1.11354057473","1024","2","48000","-16","experiment","2831.0,2828.0,2822.0,2819.0,2814.0,2808.0,2798.0,2788.0,2783.0,2770.0,2764.0,2750.0,2743.0,2733.0,2722.0,2712.0,2702.0,2692.0,2678.0,2674.0,2665.0,2651.0,2642.0,2631.0,2622.0,2619.0,2608.0,2603.0,2602.0,2596.0,2591.0,2592.0,2584.0,2586.0,2585.0,2582.0,2582.0,2580.0,2580.0,2582.0,2580.0,2580.0,2579.0,2580.0,2580.0,2583.0,2584.0,2589.0,2590.0,2590.0,2593.0,2597.0,2600.0,2603.0,2604.0,2606.0,2610.0,2616.0,2620.0,2622.0,2626.0,2631.0,2628.0,2636.0,2642.0,2644.0,2646.0,2651.0,2655.0,2663.0,2670.0,2670.0,2670.0,2674.0,2680.0","2685.0,2687.0,2692.0,2697.0,2696.0,2699.0,2699.0,2706.0,2706.0,2705.0,2708.0,2709.0,2710.0,2712.0,2711.0,2715.0,2714.0,2715.0,2716.0,2715.0,2718.0,2716.0,2718.0,2715.0,2718.0,2715.0,2715.0,2714.0,2715.0,2718.0,2715.0,2720.0,2722.0,2720.0,2726.0,2725.0,2726.0,2731.0,2728.0,2747.0,2741.0,2742.0,2745.0,2746.0,2754.0,2751.0,2756.0,2758.0,2762.0,2766.0,2771.0,2774.0,2781.0,2787.0,2792.0,2797.0,2799.0,2808.0,2805.0,2808.0,2815.0,2819.0,2823.0,2823.0,2823.0,2827.0,2828.0,2827.0,2827.0,2836.0,2834.0,2829.0,2828.0,2832.0,2831.0,2831.0,2833.0,2834.0,2831.0,2835.0,2838.0,2839.0,2844.0,2842.0,2845.0,2849.0,2850.0,2854.0,2857.0,2858.0,2863.0,2868.0,2870.0,2878.0,2883.0,2885.0,2886.0,2890.0,2895.0,2905.0,2915.0,2919.0,2926.0,2935.0,2939.0,2943.0,2954.0,2956.0,2971.0,2969.0,2975.0,2986.0,2992.0,3003.0,3012.0,3015.0,3021.0,3027.0,3032.0,3037.0,3036.0,3036.0,3041.0,3044.0,3051.0,3047.0,3046.0,3045.0,3045.0,3043.0,3043.0,3037.0,3034.0,3029.0,3024.0,3022.0,3016.0,3015.0,3012.0,3004.0,3006.0,3006.0,3001.0,2988.0,2988.0,2989.0,2980.0,2977.0,2969.0,2968.0,2962.0,2966.0,2959.0,2951.0,2951.0,2948.0,2948.0,2942.0,2940.0,2936.0,2940.0,2938.0,2936.0,2933.0,2932.0,2931.0,2927.0,2934.0,2933.0,2933.0,2931.0,2933.0,2932.0,2935.0,2937.0,2942.0,2947.0,2946.0,2953.0,2948.0,2954.0,2958.0,2956.0,2965.0,2970.0,2976.0,2975.0,2979.0,2980.0,2982.0,2986.0,3009.0,3044.0,2792.0,2495.0,1915.0,1124.0,0.0,469.0,390.0,367.0,408.0,0.0,0.0,0.0,1082.0,1227.0,1368.0,1988.0,2199.0,2428.0,2591.0,2734.0,2813.0,2907.0,2992.0,3107.0,3124.0,3120.0,3076.0,3072.0,3076.0,3088.0,3083.0,3081.0,3076.0,3076.0,3079.0,3078.0,3083.0,3092.0,3082.0,3083.0,3084.0,3078.0,3088.0,3084.0,3083.0,3084.0,3081.0,3075.0,3072.0,3059.0,3059.0,3058.0,3055.0,3059.0,3063.0,3055.0,3056.0,3056.0,3060.0,3060.0,3053.0,3051.0,3046.0,3050.0,3044.0,3070.0,3070.0,2905.0,2616.0,2073.0,1204.0,0.0,382.0,0.0,0.0,0.0,0.0,0.0,0.0,0.0,0.0,414.0,0.0,1094.0,1377.0,2197.0,2538.0,2764.0,2880.0,3032.0,3119.0,3081.0,3088.0,3097.0,3087.0,3079.0,3058.0,3063.0,3062.0,3064.0,3063.0,3069.0,3069.0,3066.0,3074.0,3079.0,3102.0,3108.0,3102.0,3107.0,3086.0,3075.0,3070.0,3074.0,3068.0,3073.0,3075.0,3075.0,3073.0,3073.0,3070.0,3070.0,3068.0,3066.0,3062.0,3063.0,3060.0,3052.0,3053.0,3049.0,3049.0,3050.0,3049.0,3044.0,3051.0,3044.0,3046.0,3059.0,3059.0,3058.0,3060.0,3058.0,3060.0,3060.0,3063.0,3060.0,3060.0,3063.0,3065.0,3061.0,3059.0,3061.0,3058.0,3057.0,3057.0,3056.0,3054.0,3052.0,3053.0,3053.0,3052.0,3048.0,3048.0,3047.0,3040.0,3042.0,3042.0,3043.0,3044.0,3051.0,3045.0,3050.0,3045.0,3041.0,3039.0,3038.0,3043.0,3045.0,3049.0,3047.0,3047.0,3056.0,3062.0,3063.0,3068.0,3077.0,3081.0,3081.0,3086.0,3091.0,3092.0,3097.0,3104.0,3104.0,3108.0,3112.0,3118.0,3120.0,3125.0,3133.0,3140.0,3144.0,3153.0,3154.0,3153.0,3165.0,3161.0,3159.0,3164.0,3166.0,3173.0,3174.0,3181.0,3183.0,3186.0,3191.0,3193.0,3201.0,3203.0,3212.0,3217.0,3221.0,3223.0,3230.0,3233.0,3236.0,3242.0,3246.0,3245.0,3243.0,3251.0,3252.0,3254.0,3268.0,3264.0,3267.0,3270.0,3278.0,3276.0,3275.0,3278.0,3278.0,3287.0,3294.0,3288.0,3289.0,3289.0,3285.0,3285.0,3289.0,3282.0,3277.0,3275.0,3271.0,3262.0,3267.0,3264.0,3268.0,3263.0,3262.0,3264.0,3257.0,3255.0,3248.0,3247.0,3247.0,3246.0,3243.0,3239.0,3244.0,3241.0,3244.0,3244.0,3245.0,3242.0,3241.0,3240.0,3241.0,3238.0,3235.0,3234.0,3234.0,3235.0,3232.0,3232.0,3230.0,3232.0,3223.0,3227.0,3222.0,3222.0,3221.0,3225.0,3223.0,3222.0,3222.0,3216.0,3224.0,3220.0,3218.0,3218.0,3214.0,3214.0,3217.0,3218.0,3219.0,3212.0","11","odd","NA","NA","NA","arithmetic","94356","100589","NA","92155","105590","NA","91731","NA","NA","1554","97834","NA","99835","NA","100590","NA","1646","NA","NA","NA","105912","NA","94712","NA","105592","NA","97484","NA","NA","NA","92156","2780","NA","NA","NA","NA","91731","94712","NA","Extended template","0","0","0","yes","1024"
"undefined","undefined","undefined","undefined","black","[ 3517.  3521.  3522.  3525.  3522.  3519.  3526.  3525.  3529.  3534.
  3533.  3528.  3535.  3532.  3539.  3541.  3537.  3536.  3535.  3537.
  3534.  3540.  3539.  3539.  3542.  3538.  3537.  3535.  3531.  3529.
  3528.  3526.  3514.  3509.  3508.  3497.  3497.  3483.  3475.  3471.
  3463.  3457.  3444.  3444.  3438.  3437.  3429.  3426.  3422.  3424.
  3420.  3431.  3426.  3426.  3426.  3430.  3429.  3432.  3432.  3428.
  3440.  3435.  3440.  3443.  3450.  3448.  3451.  3457.  3451.  3470.
  3467.  3475.  3481.  3479.  3490.]","yes","xpyriment","legacy","legacy","0","uniform","undefined","undefined","0","1","NA","0","1","NA","0","0","0","0","1","NA","1","NA","1","NA","0","0","NA","NA","1","NA","1","NA","1","NA","1","NA","1","NA","0","0","0","0","NA","NA","0","1","NA","10/18/18 15:06:02","A template containing a practice and an experimental phase","hard","yes","Experiment.osexp","C:\Users\EEGExp\Desktop","no","mono","no","18","no","white","no","Ok","yes","768","legacy","1","1","0","C:/Users/EEGExp/Desktop/subject-11.csv","xpyriment","","Kafkaesque Koffka","3.2.5","yes","[ 3488.  3494.  3499.  3503.  3509.  3512.  3520.  3521.  3520.  3525.
  3526.  3537.  3542.  3543.  3545.  3547.  3552.  3554.  3556.  3559.
  3562.  3573.  3573.  3572.  3580.  3578.  3578.  3585.  3580.  3580.
  3586.  3586.  3586.  3583.  3583.  3579.  3579.  3582.  3578.  3577.
  3567.  3561.  3601.  3341.  2346.  1215.  2005.  2403.  2793.  3056.
  3225.  3361.  3541.  3570.  3553.  3531.  3519.  3510.  3499.  3492.
  3480.  3479.  3478.  3474.  3473.  3480.  3474.  3463.  3458.  3448.
  3441.  3442.  3436.  3424.  3419.  3417.  3412.  3404.  3398.  3391.
  3389.  3381.  3370.  3368.  3355.  3347.  3334.  3313.  3302.  3294.
  3276.  3264.  3256.  3242.  3223.  3212.  3199.  3180.  3174.  3166.
  3161.  3155.  3143.  3141.  3135.  3126.  3115.  3113.  3107.  3105.
  3097.  3096.  3092.  3085.  3088.  3093.  3083.  3086.  3085.  3079.
  3081.  3087.  3081.  3073.  3081.  3076.  3076.  3074.  3080.  3077.
  3077.  3079.  3085.  3079.  3086.  3087.  3093.  3094.  3095.  3100.
  3100.  3103.  3108.  3104.  3110.  3112.  3117.  3122.  3119.  3122.
  3122.  3131.  3126.  3138.  3150.  3153.  3161.  3160.  3167.  3169.
  3176.  3181.  3184.  3186.  3194.  3200.  3210.  3213.  3214.  3218.
  3227.  3226.  3228.  3229.  3231.  3239.  3238.  3239.  3243.  3238.
  3241.  3247.  3244.  3245.  3250.  3252.  3257.  3258.  3258.  3264.
  3265.  3257.  3268.  3269.  3272.  3270.  3269.  3272.  3278.  3282.
  3282.  3282.  3285.  3282.  3280.  3302.  3285.  3281.  3292.  3290.
  3290.  3286.  3285.  3287.  3282.  3277.  3278.  3270.  3275.  3268.
  3270.  3273.  3274.  3272.  3267.  3268.  3268.  3268.  3267.  3269.
  3264.  3266.  3270.  3270.  3271.  3284.  3279.  3276.  3279.  3289.
  3296.  3292.  3293.  3296.  3306.  3306.  3306.  3316.  3320.  3326.
  3329.  3339.  3346.  3347.  3353.  3363.  3371.  3369.  3376.  3377.
  3381.  3382.  3383.  3385.  3390.  3392.  3392.  3389.  3392.  3390.
  3393.  3392.  3395.  3396.  3395.  3392.  3397.  3395.  3397.  3392.
  3388.  3395.  3396.  3391.  3394.  3394.  3396.  3396.  3394.  3390.
  3398.  3397.  3395.  3397.  3392.  3397.  3397.  3400.  3402.  3406.
  3403.  3413.  3418.  3417.  3424.  3423.  3424.  3431.  3438.  3439.
  3435.  3440.  3445.  3444.  3451.  3453.  3450.  3457.  3457.  3457.
  3461.  3462.  3461.  3460.  3457.  3460.  3459.  3491.  3162.  2163.
   266.  1087.  1923.  2322.  2743.  3000.  3170.  3388.  3409.  3364.
  3355.  3354.  3336.  3314.  3305.  3298.  3293.  3292.  3286.  3284.
  3277.  3265.  3256.  3250.  3246.  3240.  3233.  3227.  3220.  3216.
  3206.  3196.  3189.  3191.  3189.  3186.  3177.  3176.  3170.  3159.
  3156.  3155.  3152.  3151.  3146.  3143.  3140.  3138.  3133.  3133.
  3127.  3123.  3121.  3121.  3116.  3118.  3119.  3119.  3120.  3115.
  3119.  3120.  3118.  3115.  3116.  3117.  3118.  3117.  3118.  3120.
  3119.  3123.  3116.  3117.  3127.  3124.  3123.  3121.  3125.  3124.
  3123.  3122.  3125.  3127.  3117.  3123.  3126.  3127.  3132.  3128.
  3124.  3125.  3125.  3127.  3130.  3131.  3129.  3129.  3127.  3131.
  3134.  3132.  3133.  3138.  3136.  3139.  3137.  3128.  3133.  3133.
  3130.  3122.  3122.  3120.  3114.  3116.  3113.  3105.  3105.  3100.
  3102.  3102.  3102.  3103.  3102.  3101.  3100.  3106.  3106.  3100.
  3104.  3105.  3112.  3113.  3122.  3127.  3134.  3140.  3147.  3147.
  3159.  3162.  3168.  3172.  3184.]","7x - 3 = 18","0","return","NA","NA","return","1134","NA","NA","1134","LinregressResult(slope=-0.51301238949943717, intercept=3365.8611592271818, rvalue=-0.25578055522120235, pvalue=1.5653144281395407e-08, stderr=0.089153242086667486)","2","legacy","-0.513012389499","1024","2","48000","-16","experiment","3517.0,3521.0,3522.0,3525.0,3522.0,3519.0,3526.0,3525.0,3529.0,3534.0,3533.0,3528.0,3535.0,3532.0,3539.0,3541.0,3537.0,3536.0,3535.0,3537.0,3534.0,3540.0,3539.0,3539.0,3542.0,3538.0,3537.0,3535.0,3531.0,3529.0,3528.0,3526.0,3514.0,3509.0,3508.0,3497.0,3497.0,3483.0,3475.0,3471.0,3463.0,3457.0,3444.0,3444.0,3438.0,3437.0,3429.0,3426.0,3422.0,3424.0,3420.0,3431.0,3426.0,3426.0,3426.0,3430.0,3429.0,3432.0,3432.0,3428.0,3440.0,3435.0,3440.0,3443.0,3450.0,3448.0,3451.0,3457.0,3451.0,3470.0,3467.0,3475.0,3481.0,3479.0,3490.0","3488.0,3494.0,3499.0,3503.0,3509.0,3512.0,3520.0,3521.0,3520.0,3525.0,3526.0,3537.0,3542.0,3543.0,3545.0,3547.0,3552.0,3554.0,3556.0,3559.0,3562.0,3573.0,3573.0,3572.0,3580.0,3578.0,3578.0,3585.0,3580.0,3580.0,3586.0,3586.0,3586.0,3583.0,3583.0,3579.0,3579.0,3582.0,3578.0,3577.0,3567.0,3561.0,3601.0,3341.0,2346.0,0.0,0.0,0.0,0.0,0.0,0.0,0.0,0.0,0.0,0.0,0.0,0.0,0.0,1215.0,2005.0,2403.0,2793.0,3056.0,3225.0,3361.0,3541.0,3570.0,3553.0,3531.0,3519.0,3510.0,3499.0,3492.0,3480.0,3479.0,3478.0,3474.0,3473.0,3480.0,3474.0,3463.0,3458.0,3448.0,3441.0,3442.0,3436.0,3424.0,3419.0,3417.0,3412.0,3404.0,3398.0,3391.0,3389.0,3381.0,3370.0,3368.0,3355.0,3347.0,3334.0,3313.0,3302.0,3294.0,3276.0,3264.0,3256.0,3242.0,3223.0,3212.0,3199.0,3180.0,3174.0,3166.0,3161.0,3155.0,3143.0,3141.0,3135.0,3126.0,3115.0,3113.0,3107.0,3105.0,3097.0,3096.0,3092.0,3085.0,3088.0,3093.0,3083.0,3086.0,3085.0,3079.0,3081.0,3087.0,3081.0,3073.0,3081.0,3076.0,3076.0,3074.0,3080.0,3077.0,3077.0,3079.0,3085.0,3079.0,3086.0,3087.0,3093.0,3094.0,3095.0,3100.0,3100.0,3103.0,3108.0,3104.0,3110.0,3112.0,3117.0,3122.0,3119.0,3122.0,3122.0,3131.0,3126.0,3138.0,3150.0,3153.0,3161.0,3160.0,3167.0,3169.0,3176.0,3181.0,3184.0,3186.0,3194.0,3200.0,3210.0,3213.0,3214.0,3218.0,3227.0,3226.0,3228.0,3229.0,3231.0,3239.0,3238.0,3239.0,3243.0,3238.0,3241.0,3247.0,3244.0,3245.0,3250.0,3252.0,3257.0,3258.0,3258.0,3264.0,3265.0,3257.0,3268.0,3269.0,3272.0,3270.0,3269.0,3272.0,3278.0,3282.0,3282.0,3282.0,3285.0,3282.0,3280.0,3302.0,3285.0,3281.0,3292.0,3290.0,3290.0,3286.0,3285.0,3287.0,3282.0,3277.0,3278.0,3270.0,3275.0,3268.0,3270.0,3273.0,3274.0,3272.0,3267.0,3268.0,3268.0,3268.0,3267.0,3269.0,3264.0,3266.0,3270.0,3270.0,3271.0,3284.0,3279.0,3276.0,3279.0,3289.0,3296.0,3292.0,3293.0,3296.0,3306.0,3306.0,3306.0,3316.0,3320.0,3326.0,3329.0,3339.0,3346.0,3347.0,3353.0,3363.0,3371.0,3369.0,3376.0,3377.0,3381.0,3382.0,3383.0,3385.0,3390.0,3392.0,3392.0,3389.0,3392.0,3390.0,3393.0,3392.0,3395.0,3396.0,3395.0,3392.0,3397.0,3395.0,3397.0,3392.0,3388.0,3395.0,3396.0,3391.0,3394.0,3394.0,3396.0,3396.0,3394.0,3390.0,3398.0,3397.0,3395.0,3397.0,3392.0,3397.0,3397.0,3400.0,3402.0,3406.0,3403.0,3413.0,3418.0,3417.0,3424.0,3423.0,3424.0,3431.0,3438.0,3439.0,3435.0,3440.0,3445.0,3444.0,3451.0,3453.0,3450.0,3457.0,3457.0,3457.0,3461.0,3462.0,3461.0,3460.0,3457.0,3460.0,3459.0,3491.0,3162.0,2163.0,0.0,0.0,0.0,0.0,0.0,0.0,0.0,0.0,0.0,0.0,0.0,0.0,266.0,1087.0,1923.0,2322.0,2743.0,3000.0,3170.0,3388.0,3409.0,3364.0,3355.0,3354.0,3336.0,3314.0,3305.0,3298.0,3293.0,3292.0,3286.0,3284.0,3277.0,3265.0,3256.0,3250.0,3246.0,3240.0,3233.0,3227.0,3220.0,3216.0,3206.0,3196.0,3189.0,3191.0,3189.0,3186.0,3177.0,3176.0,3170.0,3159.0,3156.0,3155.0,3152.0,3151.0,3146.0,3143.0,3140.0,3138.0,3133.0,3133.0,3127.0,3123.0,3121.0,3121.0,3116.0,3118.0,3119.0,3119.0,3120.0,3115.0,3119.0,3120.0,3118.0,3115.0,3116.0,3117.0,3118.0,3117.0,3118.0,3120.0,3119.0,3123.0,3116.0,3117.0,3127.0,3124.0,3123.0,3121.0,3125.0,3124.0,3123.0,3122.0,3125.0,3127.0,3117.0,3123.0,3126.0,3127.0,3132.0,3128.0,3124.0,3125.0,3125.0,3127.0,3130.0,3131.0,3129.0,3129.0,3127.0,3131.0,3134.0,3132.0,3133.0,3138.0,3136.0,3139.0,3137.0,3128.0,3133.0,3133.0,3130.0,3122.0,3122.0,3120.0,3114.0,3116.0,3113.0,3105.0,3105.0,3100.0,3102.0,3102.0,3102.0,3103.0,3102.0,3101.0,3100.0,3106.0,3106.0,3100.0,3104.0,3105.0,3112.0,3113.0,3122.0,3127.0,3134.0,3140.0,3147.0,3147.0,3159.0,3162.0,3168.0,3172.0,3184.0","11","odd","NA","NA","NA","arithmetic","94356","111260","NA","92155","116262","NA","91731","NA","NA","1554","108507","NA","110507","NA","111262","NA","1646","NA","NA","NA","116582","NA","106857","NA","116263","NA","108157","NA","105959","NA","92156","2780","NA","NA","NA","NA","91731","106857","NA","Extended template","0","0","0","yes","1024"
"undefined","undefined","undefined","undefined","black","[ 3352.  3361.  3363.  3354.  3357.  3357.  3347.  3350.  3349.  3350.
  3347.  3344.  3347.  3346.  3348.  3348.  3346.  3349.  3346.  3347.
  3344.  3346.  3347.  3348.  3344.  3344.  3343.  3349.  3350.  3342.
  3349.  3346.  3346.  3345.  3346.  3341.  3345.  3339.  3339.  3336.
  3337.  3336.  3336.  3336.  3326.  3327.  3323.  3321.  3319.  3317.
  3299.  3305.  3341.  3050.  1163.     0.     0.     0.     0.     0.
     0.     0.     0.  1136.  1849.  2133.  2464.  2765.  2947.  3054.
  3160.  3262.  3305.  3303.  3266.]","yes","xpyriment","legacy","legacy","0","uniform","undefined","undefined","0","2","NA","0","2","NA","0","0","0","0","2","NA","2","NA","2","NA","0","0","NA","NA","2","NA","2","NA","2","NA","2","NA","2","NA","0","0","0","0","NA","NA","0","2","NA","10/18/18 15:06:02","A template containing a practice and an experimental phase","medium","yes","Experiment.osexp","C:\Users\EEGExp\Desktop","no","mono","no","18","no","white","no","Ok","yes","768","legacy","2","2","0","C:/Users/EEGExp/Desktop/subject-11.csv","xpyriment","","Kafkaesque Koffka","3.2.5","yes","[ 3270.  3268.  3250.  3238.  3229.  3224.  3221.  3219.  3212.  3207.
  3200.  3187.  3190.  3185.  3178.  3168.  3163.  3158.  3150.  3137.
  3129.  3120.  3110.  3105.  3098.  3089.  3083.  3067.  3061.  3053.
  3042.  3036.  3029.  3009.  3003.  2992.  2983.  2978.  2967.  2964.
  2959.  2944.  2934.  2926.  2925.  2913.  2910.  2906.  2899.  2890.
  2879.  2872.  2871.  2871.  2860.  2853.  2846.  2844.  2838.  2832.
  2836.  2837.  2833.  2820.  2819.  2816.  2811.  2801.  2799.  2792.
  2789.  2783.  2788.  2784.  2781.  2781.  2776.  2777.  2777.  2776.
  2773.  2773.  2774.  2775.  2778.  2779.  2780.  2781.  2782.  2780.
  2781.  2783.  2785.  2785.  2784.  2786.  2788.  2789.  2797.  2793.
  2797.  2798.  2804.  2806.  2804.  2813.  2815.  2827.  2833.  2831.
  2837.  2845.  2851.  2862.  2861.  2866.  2870.  2878.  2881.  2890.
  2890.  2892.  2900.  2907.  2913.  2914.  2914.  2920.  2921.  2922.
  2924.  2924.  2917.  2911.  2913.  2919.  2914.  2911.  2911.  2907.
  2907.  2904.  2904.  2910.  2905.  2906.  2906.  2906.  2907.  2908.
  2910.  2910.  2914.  2916.  2916.  2919.  2924.  2931.  2935.  2944.
  2949.  2950.  2953.  2955.  2957.  2963.  2961.  2963.  2965.  2964.
  2972.  2967.  2973.  2970.  2967.  2964.  2962.  2963.  2963.  2960.
  2959.  2960.  2959.  2953.  2951.  2951.  2956.  2947.  2946.  2942.
  2946.  2946.  2936.  2948.  2942.  2942.  2944.  2947.  2943.  2943.
  2943.  2945.  2947.  2952.  2954.  2950.  2954.  2955.  2956.  2955.
  2950.  2961.  2956.  2960.  2957.  2952.  2953.  2943.  2944.  2943.
  2949.  2949.  2950.  2951.  2950.  2949.  2949.  2953.  2955.  2956.
  2958.  2965.  2959.  2960.  2964.  2964.  2966.  2967.  2973.  2975.
  2972.  2977.  2979.  2977.  3009.  2811.  1027.   344.  1064.  1766.
  2095.  2482.  2696.  2835.  3050.  3117.  3109.  3091.  3098.  3099.
  3097.  3081.  3067.  3057.  3052.  3046.  3037.  3031.  3022.  3012.
  3004.  2992.  2981.  2974.  2967.  2959.  2950.  2948.  2936.  2927.
  2916.  2910.  2908.  2899.  2890.  2884.  2879.  2871.  2868.  2867.
  2859.  2858.  2848.  2843.  2837.  2834.  2825.  2822.  2818.  2809.
  2807.  2803.  2800.  2794.  2790.  2790.  2790.  2797.  2794.  2793.
  2790.  2794.  2796.  2796.  2791.  2790.  2794.  2791.  2793.  2794.
  2795.  2800.  2799.  2799.  2798.  2799.  2796.  2793.  2785.  2785.
  2780.  2780.  2777.  2762.  2760.  2755.  2750.  2740.  2730.  2725.
  2718.  2702.  2693.  2688.  2675.  2666.  2653.  2651.  2641.  2633.
  2626.  2617.  2612.  2607.  2604.  2594.  2594.  2585.  2580.  2581.
  2575.  2573.  2574.  2570.  2570.  2570.  2568.  2573.  2576.  2575.
  2575.  2576.  2578.  2583.  2595.  2598.  2600.  2600.  2605.  2618.
  2617.  2623.  2626.  2637.  2635.  2650.  2654.  2657.  2658.  2664.
  2670.  2674.  2679.  2684.  2686.  2688.  2691.  2693.  2695.  2698.
  2698.  2706.  2706.  2708.  2710.  2713.  2711.  2716.  2715.  2716.
  2719.  2719.  2723.  2723.  2726.  2736.  2738.  2740.  2739.  2746.
  2746.  2752.  2752.  2761.  2761.  2767.  2771.  2775.  2781.  2785.
  2787.  2790.  2792.  2795.  2798.  2806.  2808.  2811.  2817.  2821.
  2822.  2827.  2832.  2839.  2841.  2840.  2851.  2854.  2856.  2862.
  2871.  2870.  2874.  2878.  2882.  2889.  2890.  2901.  2902.  2908.
  2906.  2910.  2916.  2915.  2921.  2923.  2922.  2920.  2925.  2930.
  2937.  2935.  2938.  2947.  2943.  2941.  2945.  2949.  2946.  2948.
  2952.  2954.  2951.]","7x = 28","0","return","NA","NA","return","1134","NA","NA","1134","LinregressResult(slope=-0.51623531045570314, intercept=2973.6473716313153, rvalue=-0.32139606032271711, pvalue=4.5529645688903485e-13, stderr=0.069352051431630521)","2","legacy","-0.516235310456","1024","2","48000","-16","experiment","3352.0,3361.0,3363.0,3354.0,3357.0,3357.0,3347.0,3350.0,3349.0,3350.0,3347.0,3344.0,3347.0,3346.0,3348.0,3348.0,3346.0,3349.0,3346.0,3347.0,3344.0,3346.0,3347.0,3348.0,3344.0,3344.0,3343.0,3349.0,3350.0,3342.0,3349.0,3346.0,3346.0,3345.0,3346.0,3341.0,3345.0,3339.0,3339.0,3336.0,3337.0,3336.0,3336.0,3336.0,3326.0,3327.0,3323.0,3321.0,3319.0,3317.0,3299.0,3305.0,3341.0,3050.0,1163.0,0.0,0.0,0.0,0.0,0.0,0.0,0.0,0.0,1136.0,1849.0,2133.0,2464.0,2765.0,2947.0,3054.0,3160.0,3262.0,3305.0,3303.0,3266.0","3270.0,3268.0,3250.0,3238.0,3229.0,3224.0,3221.0,3219.0,3212.0,3207.0,3200.0,3187.0,3190.0,3185.0,3178.0,3168.0,3163.0,3158.0,3150.0,3137.0,3129.0,3120.0,3110.0,3105.0,3098.0,3089.0,3083.0,3067.0,3061.0,3053.0,3042.0,3036.0,3029.0,3009.0,3003.0,2992.0,2983.0,2978.0,2967.0,2964.0,2959.0,2944.0,2934.0,2926.0,2925.0,2913.0,2910.0,2906.0,2899.0,2890.0,2879.0,2872.0,2871.0,2871.0,2860.0,2853.0,2846.0,2844.0,2838.0,2832.0,2836.0,2837.0,2833.0,2820.0,2819.0,2816.0,2811.0,2801.0,2799.0,2792.0,2789.0,2783.0,2788.0,2784.0,2781.0,2781.0,2776.0,2777.0,2777.0,2776.0,2773.0,2773.0,2774.0,2775.0,2778.0,2779.0,2780.0,2781.0,2782.0,2780.0,2781.0,2783.0,2785.0,2785.0,2784.0,2786.0,2788.0,2789.0,2797.0,2793.0,2797.0,2798.0,2804.0,2806.0,2804.0,2813.0,2815.0,2827.0,2833.0,2831.0,2837.0,2845.0,2851.0,2862.0,2861.0,2866.0,2870.0,2878.0,2881.0,2890.0,2890.0,2892.0,2900.0,2907.0,2913.0,2914.0,2914.0,2920.0,2921.0,2922.0,2924.0,2924.0,2917.0,2911.0,2913.0,2919.0,2914.0,2911.0,2911.0,2907.0,2907.0,2904.0,2904.0,2910.0,2905.0,2906.0,2906.0,2906.0,2907.0,2908.0,2910.0,2910.0,2914.0,2916.0,2916.0,2919.0,2924.0,2931.0,2935.0,2944.0,2949.0,2950.0,2953.0,2955.0,2957.0,2963.0,2961.0,2963.0,2965.0,2964.0,2972.0,2967.0,2973.0,2970.0,2967.0,2964.0,2962.0,2963.0,2963.0,2960.0,2959.0,2960.0,2959.0,2953.0,2951.0,2951.0,2956.0,2947.0,2946.0,2942.0,2946.0,2946.0,2936.0,2948.0,2942.0,2942.0,2944.0,2947.0,2943.0,2943.0,2943.0,2945.0,2947.0,2952.0,2954.0,2950.0,2954.0,2955.0,2956.0,2955.0,2950.0,2961.0,2956.0,2960.0,2957.0,2952.0,2953.0,2943.0,2944.0,2943.0,2949.0,2949.0,2950.0,2951.0,2950.0,2949.0,2949.0,2953.0,2955.0,2956.0,2958.0,2965.0,2959.0,2960.0,2964.0,2964.0,2966.0,2967.0,2973.0,2975.0,2972.0,2977.0,2979.0,2977.0,3009.0,2811.0,1027.0,0.0,0.0,0.0,0.0,0.0,0.0,0.0,0.0,0.0,0.0,0.0,0.0,0.0,0.0,0.0,0.0,344.0,0.0,1064.0,1766.0,2095.0,2482.0,2696.0,2835.0,3050.0,3117.0,3109.0,3091.0,3098.0,3099.0,3097.0,3081.0,3067.0,3057.0,3052.0,3046.0,3037.0,3031.0,3022.0,3012.0,3004.0,2992.0,2981.0,2974.0,2967.0,2959.0,2950.0,2948.0,2936.0,2927.0,2916.0,2910.0,2908.0,2899.0,2890.0,2884.0,2879.0,2871.0,2868.0,2867.0,2859.0,2858.0,2848.0,2843.0,2837.0,2834.0,2825.0,2822.0,2818.0,2809.0,2807.0,2803.0,2800.0,2794.0,2790.0,2790.0,2790.0,2797.0,2794.0,2793.0,2790.0,2794.0,2796.0,2796.0,2791.0,2790.0,2794.0,2791.0,2793.0,2794.0,2795.0,2800.0,2799.0,2799.0,2798.0,2799.0,2796.0,2793.0,2785.0,2785.0,2780.0,2780.0,2777.0,2762.0,2760.0,2755.0,2750.0,2740.0,2730.0,2725.0,2718.0,2702.0,2693.0,2688.0,2675.0,2666.0,2653.0,2651.0,2641.0,2633.0,2626.0,2617.0,2612.0,2607.0,2604.0,2594.0,2594.0,2585.0,2580.0,2581.0,2575.0,2573.0,2574.0,2570.0,2570.0,2570.0,2568.0,2573.0,2576.0,2575.0,2575.0,2576.0,2578.0,2583.0,2595.0,2598.0,2600.0,2600.0,2605.0,2618.0,2617.0,2623.0,2626.0,2637.0,2635.0,2650.0,2654.0,2657.0,2658.0,2664.0,2670.0,2674.0,2679.0,2684.0,2686.0,2688.0,2691.0,2693.0,2695.0,2698.0,2698.0,2706.0,2706.0,2708.0,2710.0,2713.0,2711.0,2716.0,2715.0,2716.0,2719.0,2719.0,2723.0,2723.0,2726.0,2736.0,2738.0,2740.0,2739.0,2746.0,2746.0,2752.0,2752.0,2761.0,2761.0,2767.0,2771.0,2775.0,2781.0,2785.0,2787.0,2790.0,2792.0,2795.0,2798.0,2806.0,2808.0,2811.0,2817.0,2821.0,2822.0,2827.0,2832.0,2839.0,2841.0,2840.0,2851.0,2854.0,2856.0,2862.0,2871.0,2870.0,2874.0,2878.0,2882.0,2889.0,2890.0,2901.0,2902.0,2908.0,2906.0,2910.0,2916.0,2915.0,2921.0,2923.0,2922.0,2920.0,2925.0,2930.0,2937.0,2935.0,2938.0,2947.0,2943.0,2941.0,2945.0,2949.0,2946.0,2948.0,2952.0,2954.0,2951.0","11","odd","NA","NA","NA","arithmetic","94356","122125","NA","92155","127126","NA","91731","NA","NA","1554","119371","NA","121371","NA","122126","NA","1646","NA","NA","NA","127446","NA","117475","NA","127127","NA","119016","NA","116606","NA","92156","2780","NA","NA","NA","NA","91731","117475","NA","Extended template","0","0","0","yes","1024"
"undefined","undefined","undefined","undefined","black","[ 3012.  3011.  3010.  3005.  2998.  2996.  2988.  2988.  2978.  2971.
  2967.  2958.  2950.  2950.  2943.  2938.  2932.  2926.  2915.  2911.
  2907.  2901.  2897.  2901.  2894.  2895.  2893.  2887.  2884.  2883.
  2874.  2878.  2874.  2870.  2868.  2875.  2874.  2872.  2871.  2872.
  2873.  2870.  2871.  2874.  2878.  2879.  2878.  2878.  2884.  2878.
  2879.  2882.  2882.  2879.  2886.  2896.  2898.  2895.  2898.  2910.
  2907.  2911.  2907.  2915.  2916.  2920.  2924.  2922.  2926.  2929.
  2930.  2933.  2933.  2939.  2939.]","yes","xpyriment","legacy","legacy","0","uniform","undefined","undefined","0","3","NA","0","3","NA","0","0","0","0","3","NA","3","NA","3","NA","0","0","NA","NA","3","NA","3","NA","3","NA","3","NA","3","NA","0","0","0","0","NA","NA","0","3","NA","10/18/18 15:06:02","A template containing a practice and an experimental phase","medium","yes","Experiment.osexp","C:\Users\EEGExp\Desktop","no","mono","no","18","no","white","no","Ok","yes","768","legacy","3","3","0","C:/Users/EEGExp/Desktop/subject-11.csv","xpyriment","","Kafkaesque Koffka","3.2.5","yes","[ 2943.  2943.  2944.  2949.  2947.  2946.  2955.  2955.  2949.  2949.
  2953.  2955.  2959.  2954.  2956.  2954.  2954.  2955.  2957.  2956.
  2958.  2951.  2957.  2955.  2955.  2956.  2957.  2950.  2956.  2958.
  2955.  2954.  2952.  2952.  2949.  2952.  2954.  2948.  2943.  2945.
  2938.  2935.  2936.  2936.  2920.  2921.  2918.  2914.  2908.  2899.
  2890.  2880.  2876.  2872.  2861.  2852.  2847.  2831.  2821.  2816.
  2806.  2796.  2792.  2777.  2773.  2763.  2760.  2745.  2738.  2729.
  2726.  2711.  2704.  2695.  2676.  2669.  2662.  2656.  2645.  2642.
  2635.  2632.  2624.  2623.  2614.  2615.  2615.  2618.  2613.  2606.
  2606.  2605.  2600.  2596.  2593.  2582.  2582.  2594.  2605.  1984.
   929.   277.   884.  1088.  1707.  1994.  2261.  2418.  2589.  2630.
  2610.  2611.  2621.  2636.  2642.  2630.  2606.  2608.  2611.  2613.
  2615.  2614.  2614.  2613.  2616.  2617.  2617.  2617.  2608.  2606.
  2602.  2600.  2597.  2598.  2593.  2588.  2580.  2578.  2577.  2576.
  2570.  2562.  2558.  2551.  2549.  2546.  2540.  2540.  2535.  2532.
  2527.  2526.  2520.  2519.  2520.  2524.  2512.  2508.  2504.  2501.
  2499.  2497.  2501.  2498.  2501.  2503.  2504.  2501.  2506.  2502.
  2500.  2503.  2502.  2502.  2499.  2499.  2502.  2502.  2504.  2503.
  2502.  2507.  2504.  2502.  2505.  2500.  2501.  2498.  2496.  2503.
  2499.  2499.  2504.  2501.  2504.  2500.  2502.  2500.  2496.  2499.
  2494.  2497.  2507.  2507.  2502.  2508.  2505.  2509.  2509.  2505.
  2507.  2507.  2507.  2505.  2507.  2505.  2511.  2510.  2510.  2513.
  2512.  2514.  2518.  2517.  2523.  2519.  2524.  2528.  2532.  2535.
  2536.  2540.  2547.  2551.  2547.  2548.  2547.  2551.  2551.  2553.
  2554.  2561.  2564.  2565.  2568.  2570.  2579.  2579.  2579.  2583.
  2586.  2591.  2593.  2595.  2599.  2598.  2598.  2599.  2599.  2600.
  2601.  2606.  2602.  2602.  2599.  2599.  2597.  2619.  2559.  1699.
   357.   680.  1013.  1628.  1883.  2140.  2333.  2473.  2638.  2652.
  2624.  2604.  2613.  2615.  2605.  2567.  2537.  2530.  2515.  2502.
  2492.  2478.  2470.  2461.  2449.  2438.  2431.  2422.  2417.  2410.
  2407.  2403.  2397.  2398.  2393.  2389.  2391.  2387.  2387.  2386.
  2387.  2387.  2387.  2384.  2386.  2388.  2385.  2389.  2389.  2396.
  2398.  2400.  2398.  2403.  2406.  2407.  2408.  2410.  2416.  2425.
  2424.  2427.  2430.  2434.  2435.  2434.  2439.  2443.  2447.  2449.
  2452.  2451.  2455.  2455.  2453.  2457.  2457.  2461.  2459.  2454.
  2451.  2455.  2455.  2453.  2450.  2442.  2439.  2438.  2431.  2428.
  2423.  2418.  2415.  2412.  2413.  2409.  2408.  2403.  2400.  2401.
  2399.  2397.  2397.  2397.  2394.  2393.  2392.  2391.  2393.  2394.
  2397.  2399.  2396.  2400.  2398.  2405.  2405.  2412.  2414.  2416.
  2420.  2419.  2422.  2421.  2425.  2428.  2435.  2437.  2440.  2443.
  2449.  2453.  2457.  2458.  2464.  2467.  2471.  2477.  2484.  2487.
  2488.  2496.  2500.  2503.  2506.  2513.  2521.  2523.  2524.  2529.
  2529.  2540.  2546.  2542.  2551.  2553.  2556.  2560.  2555.  2565.
  2562.  2568.  2571.  2577.  2577.  2582.  2584.  2593.  2589.  2602.
  2602.  2602.  2600.  2601.  2602.  2603.  2606.  2610.  2612.  2617.
  2617.  2619.  2617.  2621.  2627.  2631.  2632.  2630.  2631.  2633.
  2637.  2639.  2646.  2643.  2644.  2652.  2653.  2653.  2658.  2662.]","3x = 15","0","return","NA","NA","return","1134","NA","NA","1134","LinregressResult(slope=-0.66624446543539273, intercept=2698.5792950142904, rvalue=-0.31321433850974106, pvalue=3.7095951693884381e-12, stderr=0.093378624063568144)","2","legacy","-0.666244465435","1024","2","48000","-16","experiment","3012.0,3011.0,3010.0,3005.0,2998.0,2996.0,2988.0,2988.0,2978.0,2971.0,2967.0,2958.0,2950.0,2950.0,2943.0,2938.0,2932.0,2926.0,2915.0,2911.0,2907.0,2901.0,2897.0,2901.0,2894.0,2895.0,2893.0,2887.0,2884.0,2883.0,2874.0,2878.0,2874.0,2870.0,2868.0,2875.0,2874.0,2872.0,2871.0,2872.0,2873.0,2870.0,2871.0,2874.0,2878.0,2879.0,2878.0,2878.0,2884.0,2878.0,2879.0,2882.0,2882.0,2879.0,2886.0,2896.0,2898.0,2895.0,2898.0,2910.0,2907.0,2911.0,2907.0,2915.0,2916.0,2920.0,2924.0,2922.0,2926.0,2929.0,2930.0,2933.0,2933.0,2939.0,2939.0","2943.0,2943.0,2944.0,2949.0,2947.0,2946.0,2955.0,2955.0,2949.0,2949.0,2953.0,2955.0,2959.0,2954.0,2956.0,2954.0,2954.0,2955.0,2957.0,2956.0,2958.0,2951.0,2957.0,2955.0,2955.0,2956.0,2957.0,2950.0,2956.0,2958.0,2955.0,2954.0,2952.0,2952.0,2949.0,2952.0,2954.0,2948.0,2943.0,2945.0,2938.0,2935.0,2936.0,2936.0,2920.0,2921.0,2918.0,2914.0,2908.0,2899.0,2890.0,2880.0,2876.0,2872.0,2861.0,2852.0,2847.0,2831.0,2821.0,2816.0,2806.0,2796.0,2792.0,2777.0,2773.0,2763.0,2760.0,2745.0,2738.0,2729.0,2726.0,2711.0,2704.0,2695.0,2676.0,2669.0,2662.0,2656.0,2645.0,2642.0,2635.0,2632.0,2624.0,2623.0,2614.0,2615.0,2615.0,2618.0,2613.0,2606.0,2606.0,2605.0,2600.0,2596.0,2593.0,2582.0,2582.0,2594.0,2605.0,1984.0,929.0,0.0,0.0,0.0,0.0,0.0,0.0,0.0,0.0,0.0,0.0,277.0,0.0,884.0,1088.0,1707.0,1994.0,2261.0,2418.0,2589.0,2630.0,2610.0,2611.0,2621.0,2636.0,2642.0,2630.0,2606.0,2608.0,2611.0,2613.0,2615.0,2614.0,2614.0,2613.0,2616.0,2617.0,2617.0,2617.0,2608.0,2606.0,2602.0,2600.0,2597.0,2598.0,2593.0,2588.0,2580.0,2578.0,2577.0,2576.0,2570.0,2562.0,2558.0,2551.0,2549.0,2546.0,2540.0,2540.0,2535.0,2532.0,2527.0,2526.0,2520.0,2519.0,2520.0,2524.0,2512.0,2508.0,2504.0,2501.0,2499.0,2497.0,2501.0,2498.0,2501.0,2503.0,2504.0,2501.0,2506.0,2502.0,2500.0,2503.0,2502.0,2502.0,2499.0,2499.0,2502.0,2502.0,2504.0,2503.0,2502.0,2507.0,2504.0,2502.0,2505.0,2500.0,2501.0,2498.0,2496.0,2503.0,2499.0,2499.0,2504.0,2501.0,2504.0,2500.0,2502.0,2500.0,2496.0,2499.0,2494.0,2497.0,2507.0,2507.0,2502.0,2508.0,2505.0,2509.0,2509.0,2505.0,2507.0,2507.0,2507.0,2505.0,2507.0,2505.0,2511.0,2510.0,2510.0,2513.0,2512.0,2514.0,2518.0,2517.0,2523.0,2519.0,2524.0,2528.0,2532.0,2535.0,2536.0,2540.0,2547.0,2551.0,2547.0,2548.0,2547.0,2551.0,2551.0,2553.0,2554.0,2561.0,2564.0,2565.0,2568.0,2570.0,2579.0,2579.0,2579.0,2583.0,2586.0,2591.0,2593.0,2595.0,2599.0,2598.0,2598.0,2599.0,2599.0,2600.0,2601.0,2606.0,2602.0,2602.0,2599.0,2599.0,2597.0,2619.0,2559.0,1699.0,0.0,0.0,0.0,0.0,0.0,0.0,0.0,0.0,0.0,0.0,0.0,0.0,0.0,0.0,0.0,0.0,0.0,0.0,0.0,357.0,680.0,1013.0,1628.0,1883.0,2140.0,2333.0,2473.0,2638.0,2652.0,2624.0,2604.0,2613.0,2615.0,2605.0,2567.0,2537.0,2530.0,2515.0,2502.0,2492.0,2478.0,2470.0,2461.0,2449.0,2438.0,2431.0,2422.0,2417.0,2410.0,2407.0,2403.0,2397.0,2398.0,2393.0,2389.0,2391.0,2387.0,2387.0,2386.0,2387.0,2387.0,2387.0,2384.0,2386.0,2388.0,2385.0,2389.0,2389.0,2396.0,2398.0,2400.0,2398.0,2403.0,2406.0,2407.0,2408.0,2410.0,2416.0,2425.0,2424.0,2427.0,2430.0,2434.0,2435.0,2434.0,2439.0,2443.0,2447.0,2449.0,2452.0,2451.0,2455.0,2455.0,2453.0,2457.0,2457.0,2461.0,2459.0,2454.0,2451.0,2455.0,2455.0,2453.0,2450.0,2442.0,2439.0,2438.0,2431.0,2428.0,2423.0,2418.0,2415.0,2412.0,2413.0,2409.0,2408.0,2403.0,2400.0,2401.0,2399.0,2397.0,2397.0,2397.0,2394.0,2393.0,2392.0,2391.0,2393.0,2394.0,2397.0,2399.0,2396.0,2400.0,2398.0,2405.0,2405.0,2412.0,2414.0,2416.0,2420.0,2419.0,2422.0,2421.0,2425.0,2428.0,2435.0,2437.0,2440.0,2443.0,2449.0,2453.0,2457.0,2458.0,2464.0,2467.0,2471.0,2477.0,2484.0,2487.0,2488.0,2496.0,2500.0,2503.0,2506.0,2513.0,2521.0,2523.0,2524.0,2529.0,2529.0,2540.0,2546.0,2542.0,2551.0,2553.0,2556.0,2560.0,2555.0,2565.0,2562.0,2568.0,2571.0,2577.0,2577.0,2582.0,2584.0,2593.0,2589.0,2602.0,2602.0,2602.0,2600.0,2601.0,2602.0,2603.0,2606.0,2610.0,2612.0,2617.0,2617.0,2619.0,2617.0,2621.0,2627.0,2631.0,2632.0,2630.0,2631.0,2633.0,2637.0,2639.0,2646.0,2643.0,2644.0,2652.0,2653.0,2653.0,2658.0,2662.0","11","odd","NA","NA","NA","arithmetic","94356","132704","NA","92155","137705","NA","91731","NA","NA","1554","129949","NA","131950","NA","132705","NA","1646","NA","NA","NA","138025","NA","128355","NA","137706","NA","129595","NA","127466","NA","92156","2780","NA","NA","NA","NA","91731","128355","NA","Extended template","0","0","0","yes","1024"
"undefined","undefined","undefined","undefined","black","[ 2719.  2704.  2696.  2694.  2687.  2679.  2674.  2670.  2659.  2656.
  2652.  2643.  2642.  2633.  2626.  2620.  2618.  2613.  2609.  2604.
  2597.  2594.  2593.  2587.  2583.  2578.  2573.  2571.  2571.  2566.
  2564.  2562.  2555.  2553.  2554.  2553.  2546.  2544.  2543.  2538.
  2535.  2535.  2531.  2528.  2529.  2528.  2526.  2524.  2525.  2523.
  2525.  2522.  2523.  2522.  2524.  2523.  2526.  2529.  2529.  2529.
  2535.  2537.  2541.  2544.  2542.  2545.  2544.  2548.  2552.  2552.
  2559.  2557.  2562.  2561.  2562.]","yes","xpyriment","legacy","legacy","0","uniform","undefined","undefined","0","4","NA","0","4","NA","0","0","0","0","4","NA","4","NA","4","NA","0","0","NA","NA","4","NA","4","NA","4","NA","4","NA","4","NA","0","0","0","0","NA","NA","0","4","NA","10/18/18 15:06:02","A template containing a practice and an experimental phase","hard","yes","Experiment.osexp","C:\Users\EEGExp\Desktop","no","mono","no","18","no","white","no","Ok","yes","768","legacy","4","4","0","C:/Users/EEGExp/Desktop/subject-11.csv","xpyriment","","Kafkaesque Koffka","3.2.5","yes","[ 2565.  2571.  2571.  2571.  2576.  2578.  2582.  2584.  2583.  2585.
  2588.  2587.  2587.  2589.  2587.  2591.  2592.  2589.  2593.  2593.
  2591.  2590.  2592.  2591.  2594.  2595.  2590.  2585.  2585.  2587.
  2583.  2581.  2580.  2581.  2580.  2576.  2575.  2569.  2569.  2570.
  2570.  2577.  2575.  2575.  2578.  2576.  2578.  2580.  2583.  2584.
  2588.  2590.  2594.  2600.  2603.  2606.  2611.  2615.  2626.  2623.
  2627.  2634.  2635.  2635.  2640.  2641.  2639.  2646.  2644.  2641.
  2642.  2638.  2637.  2637.  2632.  2632.  2624.  2622.  2615.  2615.
  2615.  2619.  2606.  2603.  2606.  2606.  2603.  2606.  2604.  2600.
  2602.  2605.  2603.  2605.  2601.  2604.  2611.  2610.  2613.  2613.
  2617.  2618.  2613.  2621.  2622.  2619.  2615.  2616.  2613.  2614.
  2615.  2615.  2612.  2606.  2602.  2606.  2604.  2604.  2607.  2606.
  2606.  2607.  2609.  2609.  2609.  2611.  2612.  2614.  2617.  2618.
  2617.  2625.  2629.  2628.  2632.  2636.  2635.  2635.  2643.  2643.
  2646.  2650.  2649.  2648.  2647.  2649.  2650.  2648.  2646.  2641.
  2641.  2641.  2642.  2641.  2642.  2637.  2635.  2634.  2629.  2633.
  2625.  2624.  2626.  2621.  2620.  2630.  2648.  2640.  2627.  2645.
  2641.  2639.  2629.  2633.  2626.  2626.  2627.  2627.  2626.  2628.
  2627.  2630.  2630.  2631.  2633.  2630.  2637.  2634.  2633.  2635.
  2635.  2633.  2634.  2632.  2633.  2630.  2633.  2635.  2636.  2633.
  2631.  2630.  2637.  2636.  2638.  2638.  2636.  2640.  2644.  2647.
  2649.  2655.  2655.  2663.  2665.  2669.  2665.  2668.  2668.  2675.
  2675.  2683.  2687.  2679.  2682.  2682.  2679.  2680.  2682.  2679.
  2677.  2674.  2676.  2668.  2662.  2660.  2651.  2648.  2640.  2637.
  2632.  2628.  2623.  2615.  2612.  2605.  2603.  2601.  2591.  2590.
  2590.  2589.  2587.  2599.  2591.  2583.  2581.  2579.  2581.  2580.
  2588.  2593.  2599.  2601.  2601.  2613.  2615.  2618.  2629.  2632.
  2635.  2641.  2640.  2649.  2650.  2658.  2657.  2659.  2661.  2660.
  2664.  2673.  2672.  2673.  2674.  2673.  2676.  2675.  2678.  2683.
  2685.  2686.  2692.  2725.  2707.  2706.  2719.  2716.  2715.  2713.
  2709.  2713.  2715.  2720.  2721.  2721.  2722.  2726.  2731.  2730.
  2730.  2730.  2736.  2744.  2743.  2749.  2752.  2760.  2773.  2772.
  2771.  2772.  2783.  2794.  2799.  2805.  2808.  2818.  2830.  2839.
  2845.  2855.  2868.  2874.  2879.  2891.  2906.  2913.  2926.  2931.
  2948.  2958.  2967.  2981.  2993.  2999.  3006.  3020.  3024.  3039.
  3045.  3053.  3059.  3066.  3069.  3073.  3079.  3081.  3083.  3086.
  3085.  3082.  3081.  3080.  3081.  3078.  3076.  3077.  3076.  3082.
  3080.  3080.  3076.  3074.  3071.  3074.  3074.  3076.  3080.  3082.
  3079.  3083.  3085.  3093.  3098.  3103.  3104.  3101.  3155.  2479.
   351.   925.  1279.  2112.  2427.  2712.  2920.  3017.  3161.  3198.
  3174.  3147.  3139.  3136.  3137.  3124.  3116.  3097.  3100.  3098.
  3129.  3111.  3105.  3108.  3109.  3109.  3106.  3100.  3100.  3101.
  3102.  3103.  3103.  3106.  3105.  3110.  3101.  3101.  3099.  3094.
  3097.  3096.  3095.  3088.  3088.  3086.  3082.  3084.  3082.  3081.
  3082.  3087.  3087.  3083.  3090.  3092.  3093.  3098.  3099.  3104.
  3104.  3108.  3114.  3116.  3122.  3123.  3127.  3130.  3133.  3134.
  3136.  3140.  3140.  3151.  3150.  3146.  3148.  3144.  3138.  3133.
  3133.  3125.  3126.  3113.  3110.  3101.  3097.  3091.  3084.  3079.
  3073.  3057.  3078.  2851.  2247.  1113.   422.]","5x - 8 = 14","0","return","NA","NA","return","1134","NA","NA","1134","LinregressResult(slope=1.0501276458514373, intercept=2492.2596141658428, rvalue=0.50547773573082044, pvalue=6.0072765371659934e-33, stderr=0.081395291784889176)","2","legacy","1.05012764585","1024","2","48000","-16","experiment","2719.0,2704.0,2696.0,2694.0,2687.0,2679.0,2674.0,2670.0,2659.0,2656.0,2652.0,2643.0,2642.0,2633.0,2626.0,2620.0,2618.0,2613.0,2609.0,2604.0,2597.0,2594.0,2593.0,2587.0,2583.0,2578.0,2573.0,2571.0,2571.0,2566.0,2564.0,2562.0,2555.0,2553.0,2554.0,2553.0,2546.0,2544.0,2543.0,2538.0,2535.0,2535.0,2531.0,2528.0,2529.0,2528.0,2526.0,2524.0,2525.0,2523.0,2525.0,2522.0,2523.0,2522.0,2524.0,2523.0,2526.0,2529.0,2529.0,2529.0,2535.0,2537.0,2541.0,2544.0,2542.0,2545.0,2544.0,2548.0,2552.0,2552.0,2559.0,2557.0,2562.0,2561.0,2562.0","2565.0,2571.0,2571.0,2571.0,2576.0,2578.0,2582.0,2584.0,2583.0,2585.0,2588.0,2587.0,2587.0,2589.0,2587.0,2591.0,2592.0,2589.0,2593.0,2593.0,2591.0,2590.0,2592.0,2591.0,2594.0,2595.0,2590.0,2585.0,2585.0,2587.0,2583.0,2581.0,2580.0,2581.0,2580.0,2576.0,2575.0,2569.0,2569.0,2570.0,2570.0,2577.0,2575.0,2575.0,2578.0,2576.0,2578.0,2580.0,2583.0,2584.0,2588.0,2590.0,2594.0,2600.0,2603.0,2606.0,2611.0,2615.0,2626.0,2623.0,2627.0,2634.0,2635.0,2635.0,2640.0,2641.0,2639.0,2646.0,2644.0,2641.0,2642.0,2638.0,2637.0,2637.0,2632.0,2632.0,2624.0,2622.0,2615.0,2615.0,2615.0,2619.0,2606.0,2603.0,2606.0,2606.0,2603.0,2606.0,2604.0,2600.0,2602.0,2605.0,2603.0,2605.0,2601.0,2604.0,2611.0,2610.0,2613.0,2613.0,2617.0,2618.0,2613.0,2621.0,2622.0,2619.0,2615.0,2616.0,2613.0,2614.0,2615.0,2615.0,2612.0,2606.0,2602.0,2606.0,2604.0,2604.0,2607.0,2606.0,2606.0,2607.0,2609.0,2609.0,2609.0,2611.0,2612.0,2614.0,2617.0,2618.0,2617.0,2625.0,2629.0,2628.0,2632.0,2636.0,2635.0,2635.0,2643.0,2643.0,2646.0,2650.0,2649.0,2648.0,2647.0,2649.0,2650.0,2648.0,2646.0,2641.0,2641.0,2641.0,2642.0,2641.0,2642.0,2637.0,2635.0,2634.0,2629.0,2633.0,2625.0,2624.0,2626.0,2621.0,2620.0,2630.0,2648.0,2640.0,2627.0,2645.0,2641.0,2639.0,2629.0,2633.0,2626.0,2626.0,2627.0,2627.0,2626.0,2628.0,2627.0,2630.0,2630.0,2631.0,2633.0,2630.0,2637.0,2634.0,2633.0,2635.0,2635.0,2633.0,2634.0,2632.0,2633.0,2630.0,2633.0,2635.0,2636.0,2633.0,2631.0,2630.0,2637.0,2636.0,2638.0,2638.0,2636.0,2640.0,2644.0,2647.0,2649.0,2655.0,2655.0,2663.0,2665.0,2669.0,2665.0,2668.0,2668.0,2675.0,2675.0,2683.0,2687.0,2679.0,2682.0,2682.0,2679.0,2680.0,2682.0,2679.0,2677.0,2674.0,2676.0,2668.0,2662.0,2660.0,2651.0,2648.0,2640.0,2637.0,2632.0,2628.0,2623.0,2615.0,2612.0,2605.0,2603.0,2601.0,2591.0,2590.0,2590.0,2589.0,2587.0,2599.0,2591.0,2583.0,2581.0,2579.0,2581.0,2580.0,2588.0,2593.0,2599.0,2601.0,2601.0,2613.0,2615.0,2618.0,2629.0,2632.0,2635.0,2641.0,2640.0,2649.0,2650.0,2658.0,2657.0,2659.0,2661.0,2660.0,2664.0,2673.0,2672.0,2673.0,2674.0,2673.0,2676.0,2675.0,2678.0,2683.0,2685.0,2686.0,2692.0,2725.0,2707.0,2706.0,2719.0,2716.0,2715.0,2713.0,2709.0,2713.0,2715.0,2720.0,2721.0,2721.0,2722.0,2726.0,2731.0,2730.0,2730.0,2730.0,2736.0,2744.0,2743.0,2749.0,2752.0,2760.0,2773.0,2772.0,2771.0,2772.0,2783.0,2794.0,2799.0,2805.0,2808.0,2818.0,2830.0,2839.0,2845.0,2855.0,2868.0,2874.0,2879.0,2891.0,2906.0,2913.0,2926.0,2931.0,2948.0,2958.0,2967.0,2981.0,2993.0,2999.0,3006.0,3020.0,3024.0,3039.0,3045.0,3053.0,3059.0,3066.0,3069.0,3073.0,3079.0,3081.0,3083.0,3086.0,3085.0,3082.0,3081.0,3080.0,3081.0,3078.0,3076.0,3077.0,3076.0,3082.0,3080.0,3080.0,3076.0,3074.0,3071.0,3074.0,3074.0,3076.0,3080.0,3082.0,3079.0,3083.0,3085.0,3093.0,3098.0,3103.0,3104.0,3101.0,3155.0,2479.0,0.0,0.0,0.0,0.0,0.0,0.0,0.0,351.0,925.0,1279.0,2112.0,2427.0,2712.0,2920.0,3017.0,3161.0,3198.0,3174.0,3147.0,3139.0,3136.0,3137.0,3124.0,3116.0,3097.0,3100.0,3098.0,3129.0,3111.0,3105.0,3108.0,3109.0,3109.0,3106.0,3100.0,3100.0,3101.0,3102.0,3103.0,3103.0,3106.0,3105.0,3110.0,3101.0,3101.0,3099.0,3094.0,3097.0,3096.0,3095.0,3088.0,3088.0,3086.0,3082.0,3084.0,3082.0,3081.0,3082.0,3087.0,3087.0,3083.0,3090.0,3092.0,3093.0,3098.0,3099.0,3104.0,3104.0,3108.0,3114.0,3116.0,3122.0,3123.0,3127.0,3130.0,3133.0,3134.0,3136.0,3140.0,3140.0,3151.0,3150.0,3146.0,3148.0,3144.0,3138.0,3133.0,3133.0,3125.0,3126.0,3113.0,3110.0,3101.0,3097.0,3091.0,3084.0,3079.0,3073.0,3057.0,3078.0,2851.0,2247.0,1113.0,422.0,0.0,0.0,0.0,0.0,0.0,0.0","11","odd","NA","NA","NA","arithmetic","94356","145434","NA","92155","150435","NA","91731","NA","NA","1554","142680","NA","144680","NA","145435","NA","1646","NA","NA","NA","150755","NA","138925","NA","150436","NA","142327","NA","138045","NA","92156","2780","NA","NA","NA","NA","91731","138924","NA","Extended template","0","0","0","yes","1024"
"undefined","undefined","undefined","undefined","black","[ 2989.  2996.  3000.  3006.  3013.  3014.  3014.  3015.  3013.  3022.
  3021.  3021.  3031.  3037.  3036.  3041.  3043.  3042.  3042.  3044.
  3041.  3035.  3035.  3035.  3031.  3028.  3021.  3018.  3009.  3003.
  2998.  2992.  2986.  2979.  2975.  2968.  2964.  2960.  2954.  2955.
  2945.  2941.  2937.  2935.  2931.  2932.  2927.  2927.  2925.  2926.
  2927.  2924.  2926.  2923.  2924.  2930.  2924.  2927.  2931.  2934.
  2936.  2940.  2942.  2941.  2975.  2718.  1088.     0.     0.     0.
     0.     0.     0.     0.   398.]","yes","xpyriment","legacy","legacy","0","uniform","undefined","undefined","0","5","NA","0","5","NA","0","0","0","0","5","NA","5","NA","5","NA","0","0","NA","NA","5","NA","5","NA","5","NA","5","NA","5","NA","0","0","0","0","NA","NA","0","5","NA","10/18/18 15:06:02","A template containing a practice and an experimental phase","easy","yes","Experiment.osexp","C:\Users\EEGExp\Desktop","no","mono","no","18","no","white","no","Ok","yes","768","legacy","5","5","0","C:/Users/EEGExp/Desktop/subject-11.csv","xpyriment","","Kafkaesque Koffka","3.2.5","yes","[ 1008.  1220.  1935.  2229.  2516.  2741.  2859.  3011.  3083.  3090.
  3067.  3044.  3057.  3061.  3061.  3054.  3047.  3022.  3018.  3018.
  3011.  3011.  3010.  3010.  3011.  3008.  3007.  3008.  3006.  3003.
  3001.  2999.  2995.  2992.  2989.  2984.  2984.  2979.  2974.  2968.
  2959.  2959.  2948.  2941.  2926.  2919.  2910.  2905.  2898.  2892.
  2891.  2880.  2873.  2871.  2867.  2865.  2860.  2856.  2853.  2844.
  2842.  2840.  2829.  2828.  2816.  2809.  2804.  2801.  2793.  2787.
  2775.  2776.  2768.  2757.  2749.  2745.  2743.  2735.  2731.  2723.
  2715.  2707.  2707.  2705.  2699.  2695.  2696.  2693.  2691.  2689.
  2688.  2688.  2690.  2689.  2683.  2680.  2685.  2681.  2684.  2685.
  2684.  2683.  2688.  2686.  2681.  2679.  2680.  2682.  2686.  2685.
  2681.  2680.  2681.  2681.  2684.  2677.  2669.  2697.  2570.  1598.
   358.  1030.  1644.  1970.  2282.  2451.  2614.  2784.  2832.  2825.
  2799.  2795.  2811.  2812.  2810.  2797.  2781.  2779.  2780.  2771.
  2764.  2760.  2756.  2753.  2749.  2748.  2739.  2729.  2732.  2728.
  2727.  2719.  2721.  2725.  2726.  2725.  2724.  2729.  2728.  2737.
  2738.  2735.  2733.  2735.  2739.  2739.  2739.  2742.  2744.  2740.
  2745.  2749.  2749.  2753.  2751.  2753.  2756.  2763.  2764.  2769.
  2770.  2768.  2780.  2775.  2780.  2778.  2780.  2785.  2784.  2782.
  2786.  2787.  2790.  2791.  2793.  2798.  2803.  2804.  2806.  2807.
  2811.  2813.  2815.  2820.  2822.  2828.  2834.  2837.  2837.  2844.
  2845.  2845.  2852.  2860.  2865.  2872.  2876.  2881.  2887.  2891.
  2895.  2903.  2908.  2913.  2915.  2918.  2923.  2929.  2933.  2940.
  2943.  2948.  2953.  2952.  2958.  2963.  2964.  2970.  2972.  2980.
  2980.  2985.  2986.  2986.  2986.  2986.  2991.  2991.  3001.  3001.
  3005.  3003.  3002.  3003.  3008.  3015.  3018.  3019.  3021.  3021.
  3024.  3036.  3041.  3042.  3043.  3047.  3050.  3057.  3057.  3058.
  3061.  3066.  3067.  3071.  3074.  3082.  3084.  3084.  3090.  3091.
  3089.  3097.  3100.  3102.  3106.  3111.  3113.  3112.  3116.  3116.
  3118.  3119.  3121.  3119.  3124.  3126.  3126.  3127.  3131.  3129.
  3137.  3138.  3138.  3144.  3144.  3149.  3147.  3151.  3151.  3161.
  3162.  3158.  3168.  3171.  3172.  3172.  3176.  3180.  3182.  3186.
  3188.  3194.  3197.  3191.  3194.  3197.  3201.  3209.  3210.  3208.
  3211.  3218.  3223.  3224.  3225.  3224.  3227.  3232.  3238.  3244.
  3242.  3244.  3249.  3252.  3252.  3258.  3257.  3261.  3261.  3279.
  3320.  2472.   479.  1281.  2062.  2398.  2701.  2928.  3068.  3219.
  3333.  3343.  3327.  3322.  3325.  3330.  3328.  3301.  3300.  3279.
  3269.  3267.  3264.  3260.  3249.  3240.  3234.  3233.  3229.  3220.
  3216.  3211.  3202.  3199.  3196.  3191.  3188.  3180.  3175.  3169.
  3165.  3164.  3160.  3151.  3146.  3134.  3127.  3117.  3109.  3101.
  3097.  3089.  3088.  3082.  3072.  3065.  3060.  3058.  3048.  3042.
  3035.  3033.  3023.  3019.  3015.  3011.  3001.  2995.  2993.  2989.
  2987.  2983.  2980.  2973.  2971.  2966.  2965.  2964.  2960.  2958.
  2953.  2952.  2955.  2954.  2946.  2946.  2940.  2953.  2943.  2938.
  2941.  2936.  2940.  2939.  2934.  2931.  2933.  2932.  2932.  2931.
  2934.  2928.  2927.  2932.  2935.  2931.  2933.  2932.  2931.  2932.
  2927.  2929.  2928.  2927.  2925.  2927.  2920.  2917.  2915.]","5 + 6","0","return","NA","NA","return","1134","NA","NA","1134","LinregressResult(slope=0.90274265799829456, intercept=2698.7254114045159, rvalue=0.38228938422328662, pvalue=9.0693836291106719e-18, stderr=0.10097301059676769)","2","legacy","0.902742657998","1024","2","48000","-16","experiment","2989.0,2996.0,3000.0,3006.0,3013.0,3014.0,3014.0,3015.0,3013.0,3022.0,3021.0,3021.0,3031.0,3037.0,3036.0,3041.0,3043.0,3042.0,3042.0,3044.0,3041.0,3035.0,3035.0,3035.0,3031.0,3028.0,3021.0,3018.0,3009.0,3003.0,2998.0,2992.0,2986.0,2979.0,2975.0,2968.0,2964.0,2960.0,2954.0,2955.0,2945.0,2941.0,2937.0,2935.0,2931.0,2932.0,2927.0,2927.0,2925.0,2926.0,2927.0,2924.0,2926.0,2923.0,2924.0,2930.0,2924.0,2927.0,2931.0,2934.0,2936.0,2940.0,2942.0,2941.0,2975.0,2718.0,1088.0,0.0,0.0,0.0,0.0,0.0,0.0,0.0,398.0","1008.0,1220.0,1935.0,2229.0,2516.0,2741.0,2859.0,3011.0,3083.0,3090.0,3067.0,3044.0,3057.0,3061.0,3061.0,3054.0,3047.0,3022.0,3018.0,3018.0,3011.0,3011.0,3010.0,3010.0,3011.0,3008.0,3007.0,3008.0,3006.0,3003.0,3001.0,2999.0,2995.0,2992.0,2989.0,2984.0,2984.0,2979.0,2974.0,2968.0,2959.0,2959.0,2948.0,2941.0,2926.0,2919.0,2910.0,2905.0,2898.0,2892.0,2891.0,2880.0,2873.0,2871.0,2867.0,2865.0,2860.0,2856.0,2853.0,2844.0,2842.0,2840.0,2829.0,2828.0,2816.0,2809.0,2804.0,2801.0,2793.0,2787.0,2775.0,2776.0,2768.0,2757.0,2749.0,2745.0,2743.0,2735.0,2731.0,2723.0,2715.0,2707.0,2707.0,2705.0,2699.0,2695.0,2696.0,2693.0,2691.0,2689.0,2688.0,2688.0,2690.0,2689.0,2683.0,2680.0,2685.0,2681.0,2684.0,2685.0,2684.0,2683.0,2688.0,2686.0,2681.0,2679.0,2680.0,2682.0,2686.0,2685.0,2681.0,2680.0,2681.0,2681.0,2684.0,2677.0,2669.0,2697.0,2570.0,1598.0,0.0,0.0,0.0,0.0,0.0,0.0,0.0,0.0,0.0,0.0,0.0,0.0,0.0,0.0,0.0,0.0,0.0,0.0,358.0,0.0,1030.0,1644.0,1970.0,2282.0,2451.0,2614.0,2784.0,2832.0,2825.0,2799.0,2795.0,2811.0,2812.0,2810.0,2797.0,2781.0,2779.0,2780.0,2771.0,2764.0,2760.0,2756.0,2753.0,2749.0,2748.0,2739.0,2729.0,2732.0,2728.0,2727.0,2719.0,2721.0,2725.0,2726.0,2725.0,2724.0,2729.0,2728.0,2737.0,2738.0,2735.0,2733.0,2735.0,2739.0,2739.0,2739.0,2742.0,2744.0,2740.0,2745.0,2749.0,2749.0,2753.0,2751.0,2753.0,2756.0,2763.0,2764.0,2769.0,2770.0,2768.0,2780.0,2775.0,2780.0,2778.0,2780.0,2785.0,2784.0,2782.0,2786.0,2787.0,2790.0,2791.0,2793.0,2798.0,2803.0,2804.0,2806.0,2807.0,2811.0,2813.0,2815.0,2820.0,2822.0,2828.0,2834.0,2837.0,2837.0,2844.0,2845.0,2845.0,2852.0,2860.0,2865.0,2872.0,2876.0,2881.0,2887.0,2891.0,2895.0,2903.0,2908.0,2913.0,2915.0,2918.0,2923.0,2929.0,2933.0,2940.0,2943.0,2948.0,2953.0,2952.0,2958.0,2963.0,2964.0,2970.0,2972.0,2980.0,2980.0,2985.0,2986.0,2986.0,2986.0,2986.0,2991.0,2991.0,3001.0,3001.0,3005.0,3003.0,3002.0,3003.0,3008.0,3015.0,3018.0,3019.0,3021.0,3021.0,3024.0,3036.0,3041.0,3042.0,3043.0,3047.0,3050.0,3057.0,3057.0,3058.0,3061.0,3066.0,3067.0,3071.0,3074.0,3082.0,3084.0,3084.0,3090.0,3091.0,3089.0,3097.0,3100.0,3102.0,3106.0,3111.0,3113.0,3112.0,3116.0,3116.0,3118.0,3119.0,3121.0,3119.0,3124.0,3126.0,3126.0,3127.0,3131.0,3129.0,3137.0,3138.0,3138.0,3144.0,3144.0,3149.0,3147.0,3151.0,3151.0,3161.0,3162.0,3158.0,3168.0,3171.0,3172.0,3172.0,3176.0,3180.0,3182.0,3186.0,3188.0,3194.0,3197.0,3191.0,3194.0,3197.0,3201.0,3209.0,3210.0,3208.0,3211.0,3218.0,3223.0,3224.0,3225.0,3224.0,3227.0,3232.0,3238.0,3244.0,3242.0,3244.0,3249.0,3252.0,3252.0,3258.0,3257.0,3261.0,3261.0,3279.0,3320.0,2472.0,0.0,0.0,0.0,0.0,0.0,0.0,0.0,0.0,0.0,0.0,0.0,479.0,0.0,1281.0,2062.0,2398.0,2701.0,2928.0,3068.0,3219.0,3333.0,3343.0,3327.0,3322.0,3325.0,3330.0,3328.0,3301.0,3300.0,3279.0,3269.0,3267.0,3264.0,3260.0,3249.0,3240.0,3234.0,3233.0,3229.0,3220.0,3216.0,3211.0,3202.0,3199.0,3196.0,3191.0,3188.0,3180.0,3175.0,3169.0,3165.0,3164.0,3160.0,3151.0,3146.0,3134.0,3127.0,3117.0,3109.0,3101.0,3097.0,3089.0,3088.0,3082.0,3072.0,3065.0,3060.0,3058.0,3048.0,3042.0,3035.0,3033.0,3023.0,3019.0,3015.0,3011.0,3001.0,2995.0,2993.0,2989.0,2987.0,2983.0,2980.0,2973.0,2971.0,2966.0,2965.0,2964.0,2960.0,2958.0,2953.0,2952.0,2955.0,2954.0,2946.0,2946.0,2940.0,2953.0,2943.0,2938.0,2941.0,2936.0,2940.0,2939.0,2934.0,2931.0,2933.0,2932.0,2932.0,2931.0,2934.0,2928.0,2927.0,2932.0,2935.0,2931.0,2933.0,2932.0,2931.0,2932.0,2927.0,2929.0,2928.0,2927.0,2925.0,2927.0,2920.0,2917.0,2915.0","11","odd","NA","NA","NA","arithmetic","94356","158010","NA","92155","163011","NA","91731","NA","NA","1554","155256","NA","157256","NA","158011","NA","1646","NA","NA","NA","163330","NA","151650","NA","163012","NA","154901","NA","150773","NA","92156","2780","NA","NA","NA","NA","91731","151650","NA","Extended template","0","0","0","yes","1024"
"undefined","undefined","undefined","undefined","black","[ 2915.  2919.  2926.  2932.  2943.  2944.  2948.  2959.  2958.  2962.
  2968.  2971.  2971.  2977.  2979.  2980.  2987.  2985.  2989.  2992.
  2992.  2987.  2991.  2990.  2990.  2985.  2974.  2968.  2967.  2959.
  2957.  2948.  2953.  2943.  2936.  2930.  2922.  2916.  2912.  2903.
  2894.  2889.  2880.  2880.  2872.  2864.  2861.  2861.  2859.  2850.
  2847.  2841.  2834.  2830.  2831.  2822.  2824.  2819.  2819.  2819.
  2811.  2811.  2810.  2811.  2808.  2807.  2805.  2806.  2806.  2808.
  2804.  2806.  2809.  2808.  2807.]","yes","xpyriment","legacy","legacy","0","uniform","undefined","undefined","0","6","NA","0","6","NA","0","0","0","0","6","NA","6","NA","6","NA","0","0","NA","NA","6","NA","6","NA","6","NA","6","NA","6","NA","0","0","0","0","NA","NA","0","6","NA","10/18/18 15:06:02","A template containing a practice and an experimental phase","medium","yes","Experiment.osexp","C:\Users\EEGExp\Desktop","no","mono","no","18","no","white","no","Ok","yes","768","legacy","6","6","0","C:/Users/EEGExp/Desktop/subject-11.csv","xpyriment","","Kafkaesque Koffka","3.2.5","yes","[ 2808.  2810.  2809.  2803.  2810.  2814.  2815.  2816.  2818.  2821.
  2825.  2826.  2821.  2825.  2833.  2837.  2843.  2841.  2840.  2847.
  2853.  2856.  2858.  2858.  2866.  2871.  2882.  2881.  2889.  2893.
  2897.  2900.  2904.  2908.  2907.  2918.  2918.  2917.  2919.  2917.
  2915.  2921.  2909.  2910.  2908.  2906.  2901.  2908.  2906.  2899.
  2899.  2892.  2896.  2894.  2893.  2895.  2889.  2891.  2890.  2886.
  2876.  2878.  2874.  2870.  2861.  2855.  2845.  2834.  2829.  2808.
  2798.  2788.  2768.  2753.  2744.  2733.  2713.  2701.  2682.  2676.
  2671.  2661.  2648.  2638.  2631.  2629.  2618.  2611.  2603.  2598.
  2630.  2527.  1969.  1038.   286.   269.   346.  1018.  1576.  1830.
  2040.  2266.  2440.  2534.  2651.  2760.  2790.  2789.  2765.  2753.
  2769.  2775.  2782.  2783.  2780.  2781.  2780.  2760.  2756.  2760.
  2761.  2764.  2766.  2771.  2772.  2772.  2773.  2775.  2779.  2780.
  2783.  2783.  2782.  2782.  2779.  2778.  2770.  2763.  2763.  2752.
  2749.  2739.  2729.  2721.  2714.  2706.  2695.  2687.  2678.  2676.
  2667.  2657.  2650.  2641.  2637.  2628.  2624.  2618.  2612.  2612.
  2608.  2606.  2600.  2599.  2596.  2592.  2586.  2587.  2585.  2573.
  2570.  2568.  2564.  2565.  2560.  2561.  2557.  2550.  2550.  2546.
  2544.  2539.  2535.  2532.  2523.  2555.  2289.  1497.   219.   345.
   947.  1471.  1764.  1976.  2185.  2346.  2539.  2591.  2585.  2545.
  2542.  2558.  2561.  2555.  2540.  2505.  2502.  2497.  2492.  2489.
  2485.  2479.  2479.  2477.  2472.  2469.  2470.  2472.  2472.  2472.
  2471.  2473.  2474.  2479.  2482.  2484.  2491.  2490.  2493.  2496.
  2504.  2506.  2509.  2513.  2513.  2512.  2515.  2516.  2514.  2518.
  2518.  2519.  2518.  2520.  2521.  2518.  2517.  2512.  2510.  2510.
  2505.  2500.  2505.  2500.  2495.  2494.  2489.  2486.  2483.  2482.
  2478.  2471.  2469.  2466.  2463.  2460.  2459.  2460.  2458.  2455.
  2452.  2452.  2450.  2451.  2449.  2451.  2450.  2448.  2453.  2454.
  2450.  2453.  2458.  2454.  2456.  2464.  2461.  2462.  2462.  2464.
  2465.  2467.  2466.  2467.  2466.  2465.  2469.  2483.  2488.  2382.
  1680.   537.   646.   961.  1548.  1827.  2166.  2323.  2477.  2636.
  2623.  2591.  2598.  2604.  2602.  2602.  2583.  2567.  2565.  2565.
  2565.  2566.  2566.  2568.  2566.  2562.  2564.  2561.  2560.  2563.
  2563.  2567.  2564.  2565.  2566.  2570.  2569.  2572.  2575.  2576.
  2578.  2582.  2583.  2583.  2587.  2588.  2587.  2592.  2593.  2597.
  2599.  2601.  2608.  2608.  2608.  2611.  2614.  2615.  2622.  2623.
  2627.  2632.  2633.  2633.  2633.  2634.  2636.  2636.  2639.  2637.
  2640.  2641.  2643.  2644.  2647.  2653.  2649.  2646.  2653.  2646.
  2647.  2648.  2652.  2651.  2650.  2648.  2648.  2648.  2652.  2651.
  2650.  2649.  2647.  2648.  2646.  2645.  2646.  2648.  2646.  2645.
  2645.  2645.  2647.  2644.  2650.  2649.  2645.  2644.  2650.  2643.
  2650.  2644.  2643.  2647.  2644.  2649.  2646.  2654.  2654.  2657.
  2660.  2659.  2664.  2667.  2666.  2666.  2673.  2671.  2673.  2680.
  2684.  2683.  2688.  2691.  2694.  2698.  2698.  2701.  2702.  2705.
  2704.  2703.  2709.  2709.  2713.  2715.  2715.  2717.  2717.  2724.
  2723.  2729.  2733.  2735.  2742.  2742.]","7x = 56","0","return","NA","NA","return","1134","NA","NA","1134","LinregressResult(slope=-0.2830292993888523, intercept=2636.3585984191245, rvalue=-0.10063880910813738, pvalue=0.031664858032479024, stderr=0.13131896873972931)","2","legacy","-0.283029299389","1024","2","48000","-16","experiment","2915.0,2919.0,2926.0,2932.0,2943.0,2944.0,2948.0,2959.0,2958.0,2962.0,2968.0,2971.0,2971.0,2977.0,2979.0,2980.0,2987.0,2985.0,2989.0,2992.0,2992.0,2987.0,2991.0,2990.0,2990.0,2985.0,2974.0,2968.0,2967.0,2959.0,2957.0,2948.0,2953.0,2943.0,2936.0,2930.0,2922.0,2916.0,2912.0,2903.0,2894.0,2889.0,2880.0,2880.0,2872.0,2864.0,2861.0,2861.0,2859.0,2850.0,2847.0,2841.0,2834.0,2830.0,2831.0,2822.0,2824.0,2819.0,2819.0,2819.0,2811.0,2811.0,2810.0,2811.0,2808.0,2807.0,2805.0,2806.0,2806.0,2808.0,2804.0,2806.0,2809.0,2808.0,2807.0","2808.0,2810.0,2809.0,2803.0,2810.0,2814.0,2815.0,2816.0,2818.0,2821.0,2825.0,2826.0,2821.0,2825.0,2833.0,2837.0,2843.0,2841.0,2840.0,2847.0,2853.0,2856.0,2858.0,2858.0,2866.0,2871.0,2882.0,2881.0,2889.0,2893.0,2897.0,2900.0,2904.0,2908.0,2907.0,2918.0,2918.0,2917.0,2919.0,2917.0,2915.0,2921.0,2909.0,2910.0,2908.0,2906.0,2901.0,2908.0,2906.0,2899.0,2899.0,2892.0,2896.0,2894.0,2893.0,2895.0,2889.0,2891.0,2890.0,2886.0,2876.0,2878.0,2874.0,2870.0,2861.0,2855.0,2845.0,2834.0,2829.0,2808.0,2798.0,2788.0,2768.0,2753.0,2744.0,2733.0,2713.0,2701.0,2682.0,2676.0,2671.0,2661.0,2648.0,2638.0,2631.0,2629.0,2618.0,2611.0,2603.0,2598.0,2630.0,2527.0,1969.0,1038.0,0.0,286.0,0.0,0.0,0.0,0.0,0.0,269.0,346.0,0.0,0.0,1018.0,1576.0,1830.0,2040.0,2266.0,2440.0,2534.0,2651.0,2760.0,2790.0,2789.0,2765.0,2753.0,2769.0,2775.0,2782.0,2783.0,2780.0,2781.0,2780.0,2760.0,2756.0,2760.0,2761.0,2764.0,2766.0,2771.0,2772.0,2772.0,2773.0,2775.0,2779.0,2780.0,2783.0,2783.0,2782.0,2782.0,2779.0,2778.0,2770.0,2763.0,2763.0,2752.0,2749.0,2739.0,2729.0,2721.0,2714.0,2706.0,2695.0,2687.0,2678.0,2676.0,2667.0,2657.0,2650.0,2641.0,2637.0,2628.0,2624.0,2618.0,2612.0,2612.0,2608.0,2606.0,2600.0,2599.0,2596.0,2592.0,2586.0,2587.0,2585.0,2573.0,2570.0,2568.0,2564.0,2565.0,2560.0,2561.0,2557.0,2550.0,2550.0,2546.0,2544.0,2539.0,2535.0,2532.0,2523.0,2555.0,2289.0,1497.0,0.0,0.0,0.0,0.0,0.0,0.0,0.0,0.0,0.0,0.0,219.0,0.0,0.0,0.0,0.0,0.0,0.0,0.0,0.0,345.0,0.0,947.0,1471.0,1764.0,1976.0,2185.0,2346.0,2539.0,2591.0,2585.0,2545.0,2542.0,2558.0,2561.0,2555.0,2540.0,2505.0,2502.0,2497.0,2492.0,2489.0,2485.0,2479.0,2479.0,2477.0,2472.0,2469.0,2470.0,2472.0,2472.0,2472.0,2471.0,2473.0,2474.0,2479.0,2482.0,2484.0,2491.0,2490.0,2493.0,2496.0,2504.0,2506.0,2509.0,2513.0,2513.0,2512.0,2515.0,2516.0,2514.0,2518.0,2518.0,2519.0,2518.0,2520.0,2521.0,2518.0,2517.0,2512.0,2510.0,2510.0,2505.0,2500.0,2505.0,2500.0,2495.0,2494.0,2489.0,2486.0,2483.0,2482.0,2478.0,2471.0,2469.0,2466.0,2463.0,2460.0,2459.0,2460.0,2458.0,2455.0,2452.0,2452.0,2450.0,2451.0,2449.0,2451.0,2450.0,2448.0,2453.0,2454.0,2450.0,2453.0,2458.0,2454.0,2456.0,2464.0,2461.0,2462.0,2462.0,2464.0,2465.0,2467.0,2466.0,2467.0,2466.0,2465.0,2469.0,2483.0,2488.0,2382.0,1680.0,537.0,0.0,0.0,0.0,0.0,0.0,0.0,0.0,0.0,0.0,0.0,0.0,0.0,0.0,0.0,0.0,0.0,0.0,646.0,961.0,1548.0,1827.0,2166.0,2323.0,2477.0,2636.0,2623.0,2591.0,2598.0,2604.0,2602.0,2602.0,2583.0,2567.0,2565.0,2565.0,2565.0,2566.0,2566.0,2568.0,2566.0,2562.0,2564.0,2561.0,2560.0,2563.0,2563.0,2567.0,2564.0,2565.0,2566.0,2570.0,2569.0,2572.0,2575.0,2576.0,2578.0,2582.0,2583.0,2583.0,2587.0,2588.0,2587.0,2592.0,2593.0,2597.0,2599.0,2601.0,2608.0,2608.0,2608.0,2611.0,2614.0,2615.0,2622.0,2623.0,2627.0,2632.0,2633.0,2633.0,2633.0,2634.0,2636.0,2636.0,2639.0,2637.0,2640.0,2641.0,2643.0,2644.0,2647.0,2653.0,2649.0,2646.0,2653.0,2646.0,2647.0,2648.0,2652.0,2651.0,2650.0,2648.0,2648.0,2648.0,2652.0,2651.0,2650.0,2649.0,2647.0,2648.0,2646.0,2645.0,2646.0,2648.0,2646.0,2645.0,2645.0,2645.0,2647.0,2644.0,2650.0,2649.0,2645.0,2644.0,2650.0,2643.0,2650.0,2644.0,2643.0,2647.0,2644.0,2649.0,2646.0,2654.0,2654.0,2657.0,2660.0,2659.0,2664.0,2667.0,2666.0,2666.0,2673.0,2671.0,2673.0,2680.0,2684.0,2683.0,2688.0,2691.0,2694.0,2698.0,2698.0,2701.0,2702.0,2705.0,2704.0,2703.0,2709.0,2709.0,2713.0,2715.0,2715.0,2717.0,2717.0,2724.0,2723.0,2729.0,2733.0,2735.0,2742.0,2742.0","11","odd","NA","NA","NA","arithmetic","94356","168570","NA","92155","173571","NA","91731","NA","NA","1554","165816","NA","167816","NA","168571","NA","1646","NA","NA","NA","173891","NA","164221","NA","173572","NA","165463","NA","163345","NA","92156","2780","NA","NA","NA","NA","91731","164221","NA","Extended template","0","0","0","yes","1024"
"undefined","undefined","undefined","undefined","black","[ 2693.  2686.  2681.  2674.  2670.  2663.  2654.  2654.  2646.  2645.
  2637.  2634.  2628.  2623.  2621.  2621.  2618.  2620.  2618.  2614.
  2613.  2610.  2610.  2615.  2609.  2609.  2601.  2603.  2603.  2604.
  2604.  2609.  2606.  2607.  2607.  2610.  2608.  2608.  2612.  2615.
  2610.  2608.  2612.  2606.  2609.  2604.  2603.  2604.  2601.  2603.
  2602.  2602.  2598.  2598.  2595.  2595.  2595.  2597.  2594.  2592.
  2590.  2588.  2589.  2588.  2593.  2588.  2591.  2591.  2593.  2597.
  2595.  2597.  2604.  2602.  2601.]","yes","xpyriment","legacy","legacy","0","uniform","undefined","undefined","0","7","NA","0","7","NA","0","0","0","0","7","NA","7","NA","7","NA","0","0","NA","NA","7","NA","7","NA","7","NA","7","NA","7","NA","0","0","0","0","NA","NA","0","7","NA","10/18/18 15:06:02","A template containing a practice and an experimental phase","easy","yes","Experiment.osexp","C:\Users\EEGExp\Desktop","no","mono","no","18","no","white","no","Ok","yes","768","legacy","7","7","0","C:/Users/EEGExp/Desktop/subject-11.csv","xpyriment","","Kafkaesque Koffka","3.2.5","yes","[ 2607.  2614.  2615.  2617.  2624.  2624.  2628.  2633.  2641.  2648.
  2648.  2659.  2661.  2666.  2671.  2680.  2687.  2696.  2697.  2710.
  2718.  2727.  2735.  2746.  2754.  2763.  2772.  2779.  2789.  2795.
  2805.  2815.  2823.  2835.  2841.  2852.  2868.  2871.  2877.  2889.
  2893.  2905.  2911.  2915.  2918.  2924.  2925.  2930.  2937.  2943.
  2938.  2942.  2944.  2942.  2941.  2947.  2941.  2939.  2939.  2936.
  2936.  2939.  2940.  2936.  2940.  2944.  2946.  2949.  2950.  2949.
  2947.  2954.  2964.  2963.  2964.  2974.  2972.  2977.  2983.  2989.
  2994.  3004.  3011.  3015.  3020.  3023.  3037.  3045.  3053.  3056.
  3061.  3064.  3082.  3085.  3090.  3087.  3093.  3098.  3096.  3095.
  3097.  3101.  3102.  3102.  3106.  3102.  3102.  3105.  3104.  3099.
  3099.  3091.  3091.  3090.  3086.  3081.  3079.  3079.  3074.  3073.
  3068.  3064.  3054.  3068.  3108.  2887.  2429.  1386.  1130.   449.
   375.   382.   437.  1040.  1195.  1771.  2053.  2310.  2546.  2679.
  2778.  2899.  3027.  3061.  3079.  3077.  3047.  3047.  3057.  3058.
  3068.  3058.  3052.  3048.  3022.  3009.  3009.  3000.  2998.  2994.
  2986.  2985.  2978.  2977.  2969.  2963.  2961.  2955.  2952.  2946.
  2938.  2929.  2927.  2922.  2915.  2907.  2900.  2894.  2886.  2876.
  2866.  2856.  2845.  2836.  2823.  2813.  2810.  2798.  2789.  2784.
  2776.  2773.  2761.  2754.  2747.  2741.  2735.  2733.  2726.  2719.
  2709.  2706.  2702.  2699.  2692.  2687.  2681.  2676.  2672.  2668.
  2665.  2661.  2658.  2656.  2649.  2648.  2642.  2646.  2643.  2643.
  2637.  2634.  2635.  2635.  2627.  2623.  2619.  2620.  2616.  2613.
  2611.  2613.  2606.  2604.  2598.  2598.  2598.  2599.  2600.  2597.
  2597.  2595.  2594.  2594.  2592.  2590.  2590.  2590.  2591.  2595.
  2594.  2598.  2602.  2609.  2616.  2660.  2349.   934.   298.   269.
  1089.  1689.  1933.  2189.  2402.  2516.  2674.  2818.  2853.  2873.
  2842.  2835.  2824.  2834.  2837.  2831.  2806.  2801.  2781.  2764.
  2754.  2728.  2719.  2711.  2703.  2700.  2692.  2685.  2684.  2680.
  2678.  2675.  2665.  2664.  2664.  2667.  2668.  2667.  2672.  2675.
  2682.  2686.  2689.  2695.  2698.  2707.  2714.  2715.  2721.  2728.
  2737.  2747.  2755.  2763.  2772.  2775.  2782.  2790.  2794.  2798.
  2805.  2807.  2811.  2816.  2821.  2819.  2819.  2824.  2828.  2823.
  2828.  2827.  2830.  2829.  2826.  2824.  2818.  2818.  2819.  2820.
  2812.  2813.  2809.  2809.  2806.  2806.  2801.  2794.  2798.  2796.
  2798.  2797.  2789.  2792.  2787.  2784.  2783.  2778.  2780.  2775.
  2774.  2772.  2771.  2770.  2772.  2773.  2769.  2769.  2770.  2768.
  2767.  2767.  2770.  2772.  2773.  2773.  2772.  2770.  2773.  2773.
  2776.  2778.  2781.  2783.  2787.  2783.  2786.  2789.  2789.  2792.
  2797.  2800.  2805.  2807.  2810.  2819.  2820.  2825.  2830.  2835.
  2839.  2842.  2846.  2849.  2854.  2862.  2866.  2865.  2868.  2871.
  2878.  2886.  2885.  2890.  2887.  2891.  2899.  2900.  2903.  2905.
  2907.  2910.  2916.  2913.  2916.  2918.  2926.  2924.  2924.  2926.
  2932.  2934.  2937.  2933.  2938.  2946.  2946.  2950.  2957.  2957.
  2961.  2960.  2964.  2963.  2967.  2968.  2967.  2965.  2968.  2967.
  2972.  2971.  2975.  2971.  2971.  2972.  2973.  2970.  2969.  2969.
  2974.  2968.  2968.  2967.  2965.  2962.  2960.  2958.  2957.  2953.
  2952.  2952.  2950.  2948.  2947.  2946.  2947.  2947.  2947.]","3 + 7","0","return","NA","NA","return","1134","NA","NA","1134","LinregressResult(slope=0.1283702099038268, intercept=2744.216201815148, rvalue=0.047512305275224549, pvalue=0.29939725106420489, stderr=0.12356862458282444)","2","legacy","0.128370209904","1024","2","48000","-16","experiment","2693.0,2686.0,2681.0,2674.0,2670.0,2663.0,2654.0,2654.0,2646.0,2645.0,2637.0,2634.0,2628.0,2623.0,2621.0,2621.0,2618.0,2620.0,2618.0,2614.0,2613.0,2610.0,2610.0,2615.0,2609.0,2609.0,2601.0,2603.0,2603.0,2604.0,2604.0,2609.0,2606.0,2607.0,2607.0,2610.0,2608.0,2608.0,2612.0,2615.0,2610.0,2608.0,2612.0,2606.0,2609.0,2604.0,2603.0,2604.0,2601.0,2603.0,2602.0,2602.0,2598.0,2598.0,2595.0,2595.0,2595.0,2597.0,2594.0,2592.0,2590.0,2588.0,2589.0,2588.0,2593.0,2588.0,2591.0,2591.0,2593.0,2597.0,2595.0,2597.0,2604.0,2602.0,2601.0","2607.0,2614.0,2615.0,2617.0,2624.0,2624.0,2628.0,2633.0,2641.0,2648.0,2648.0,2659.0,2661.0,2666.0,2671.0,2680.0,2687.0,2696.0,2697.0,2710.0,2718.0,2727.0,2735.0,2746.0,2754.0,2763.0,2772.0,2779.0,2789.0,2795.0,2805.0,2815.0,2823.0,2835.0,2841.0,2852.0,2868.0,2871.0,2877.0,2889.0,2893.0,2905.0,2911.0,2915.0,2918.0,2924.0,2925.0,2930.0,2937.0,2943.0,2938.0,2942.0,2944.0,2942.0,2941.0,2947.0,2941.0,2939.0,2939.0,2936.0,2936.0,2939.0,2940.0,2936.0,2940.0,2944.0,2946.0,2949.0,2950.0,2949.0,2947.0,2954.0,2964.0,2963.0,2964.0,2974.0,2972.0,2977.0,2983.0,2989.0,2994.0,3004.0,3011.0,3015.0,3020.0,3023.0,3037.0,3045.0,3053.0,3056.0,3061.0,3064.0,3082.0,3085.0,3090.0,3087.0,3093.0,3098.0,3096.0,3095.0,3097.0,3101.0,3102.0,3102.0,3106.0,3102.0,3102.0,3105.0,3104.0,3099.0,3099.0,3091.0,3091.0,3090.0,3086.0,3081.0,3079.0,3079.0,3074.0,3073.0,3068.0,3064.0,3054.0,3068.0,3108.0,2887.0,2429.0,1386.0,1130.0,0.0,449.0,375.0,382.0,437.0,0.0,1040.0,1195.0,1771.0,2053.0,2310.0,2546.0,2679.0,2778.0,2899.0,3027.0,3061.0,3079.0,3077.0,3047.0,3047.0,3057.0,3058.0,3068.0,3058.0,3052.0,3048.0,3022.0,3009.0,3009.0,3000.0,2998.0,2994.0,2986.0,2985.0,2978.0,2977.0,2969.0,2963.0,2961.0,2955.0,2952.0,2946.0,2938.0,2929.0,2927.0,2922.0,2915.0,2907.0,2900.0,2894.0,2886.0,2876.0,2866.0,2856.0,2845.0,2836.0,2823.0,2813.0,2810.0,2798.0,2789.0,2784.0,2776.0,2773.0,2761.0,2754.0,2747.0,2741.0,2735.0,2733.0,2726.0,2719.0,2709.0,2706.0,2702.0,2699.0,2692.0,2687.0,2681.0,2676.0,2672.0,2668.0,2665.0,2661.0,2658.0,2656.0,2649.0,2648.0,2642.0,2646.0,2643.0,2643.0,2637.0,2634.0,2635.0,2635.0,2627.0,2623.0,2619.0,2620.0,2616.0,2613.0,2611.0,2613.0,2606.0,2604.0,2598.0,2598.0,2598.0,2599.0,2600.0,2597.0,2597.0,2595.0,2594.0,2594.0,2592.0,2590.0,2590.0,2590.0,2591.0,2595.0,2594.0,2598.0,2602.0,2609.0,2616.0,2660.0,2349.0,934.0,298.0,0.0,0.0,0.0,0.0,0.0,0.0,0.0,0.0,0.0,0.0,0.0,0.0,0.0,0.0,0.0,0.0,0.0,269.0,0.0,0.0,1089.0,1689.0,1933.0,2189.0,2402.0,2516.0,2674.0,2818.0,2853.0,2873.0,2842.0,2835.0,2824.0,2834.0,2837.0,2831.0,2806.0,2801.0,2781.0,2764.0,2754.0,2728.0,2719.0,2711.0,2703.0,2700.0,2692.0,2685.0,2684.0,2680.0,2678.0,2675.0,2665.0,2664.0,2664.0,2667.0,2668.0,2667.0,2672.0,2675.0,2682.0,2686.0,2689.0,2695.0,2698.0,2707.0,2714.0,2715.0,2721.0,2728.0,2737.0,2747.0,2755.0,2763.0,2772.0,2775.0,2782.0,2790.0,2794.0,2798.0,2805.0,2807.0,2811.0,2816.0,2821.0,2819.0,2819.0,2824.0,2828.0,2823.0,2828.0,2827.0,2830.0,2829.0,2826.0,2824.0,2818.0,2818.0,2819.0,2820.0,2812.0,2813.0,2809.0,2809.0,2806.0,2806.0,2801.0,2794.0,2798.0,2796.0,2798.0,2797.0,2789.0,2792.0,2787.0,2784.0,2783.0,2778.0,2780.0,2775.0,2774.0,2772.0,2771.0,2770.0,2772.0,2773.0,2769.0,2769.0,2770.0,2768.0,2767.0,2767.0,2770.0,2772.0,2773.0,2773.0,2772.0,2770.0,2773.0,2773.0,2776.0,2778.0,2781.0,2783.0,2787.0,2783.0,2786.0,2789.0,2789.0,2792.0,2797.0,2800.0,2805.0,2807.0,2810.0,2819.0,2820.0,2825.0,2830.0,2835.0,2839.0,2842.0,2846.0,2849.0,2854.0,2862.0,2866.0,2865.0,2868.0,2871.0,2878.0,2886.0,2885.0,2890.0,2887.0,2891.0,2899.0,2900.0,2903.0,2905.0,2907.0,2910.0,2916.0,2913.0,2916.0,2918.0,2926.0,2924.0,2924.0,2926.0,2932.0,2934.0,2937.0,2933.0,2938.0,2946.0,2946.0,2950.0,2957.0,2957.0,2961.0,2960.0,2964.0,2963.0,2967.0,2968.0,2967.0,2965.0,2968.0,2967.0,2972.0,2971.0,2975.0,2971.0,2971.0,2972.0,2973.0,2970.0,2969.0,2969.0,2974.0,2968.0,2968.0,2967.0,2965.0,2962.0,2960.0,2958.0,2957.0,2953.0,2952.0,2952.0,2950.0,2948.0,2947.0,2946.0,2947.0,2947.0,2947.0","11","odd","NA","NA","NA","arithmetic","94356","180873","NA","92155","185874","NA","91731","NA","NA","1554","178119","NA","180119","NA","180874","NA","1646","NA","NA","NA","186194","NA","174785","NA","185875","NA","177766","NA","173906","NA","92156","2780","NA","NA","NA","NA","91731","174784","NA","Extended template","0","0","0","yes","1024"
"undefined","undefined","undefined","undefined","black","[ 3194.  3188.  3183.  3181.  3177.  3171.  3170.  3163.  3157.  3157.
  3152.  3151.  3147.  3136.  3124.  3123.  3113.  3096.  3086.  3072.
  3063.  3052.  3041.  3029.  3017.  3002.  2986.  2973.  2962.  2955.
  2939.  2928.  2928.  2922.  2911.  2902.  2897.  2891.  2889.  2883.
  2877.  2869.  2873.  2872.  2870.  2870.  2871.  2871.  2865.  2865.
  2877.  2872.  2877.  2877.  2873.  2889.  2955.  2164.     0.     0.
     0.     0.   370.     0.   981.  1136.  1750.  1973.  2177.  2401.
  2600.  2654.  2741.  2843.  2946.]","yes","xpyriment","legacy","legacy","0","uniform","undefined","undefined","0","8","NA","0","8","NA","0","0","0","0","8","NA","8","NA","8","NA","0","0","NA","NA","8","NA","8","NA","8","NA","8","NA","8","NA","0","0","0","0","NA","NA","0","8","NA","10/18/18 15:06:02","A template containing a practice and an experimental phase","medium","yes","Experiment.osexp","C:\Users\EEGExp\Desktop","no","mono","no","18","no","white","no","Ok","yes","768","legacy","8","8","0","C:/Users/EEGExp/Desktop/subject-11.csv","xpyriment","","Kafkaesque Koffka","3.2.5","yes","[ 2956.  2949.  2921.  2902.  2901.  2906.  2914.  2905.  2899.  2901.
  2887.  2864.  2860.  2838.  2838.  2832.  2821.  2812.  2810.  2807.
  2802.  2796.  2794.  2789.  2783.  2776.  2768.  2769.  2766.  2762.
  2759.  2755.  2750.  2745.  2744.  2739.  2730.  2725.  2720.  2717.
  2715.  2712.  2703.  2701.  2694.  2692.  2688.  2682.  2675.  2672.
  2671.  2663.  2662.  2657.  2648.  2643.  2636.  2633.  2625.  2623.
  2616.  2612.  2606.  2596.  2596.  2589.  2584.  2577.  2572.  2569.
  2566.  2563.  2561.  2559.  2557.  2553.  2559.  2565.  2551.  2551.
  2553.  2557.  2555.  2558.  2565.  2569.  2571.  2582.  2588.  2594.
  2601.  2611.  2621.  2627.  2635.  2646.  2654.  2663.  2669.  2677.
  2687.  2696.  2703.  2705.  2719.  2723.  2733.  2738.  2739.  2747.
  2756.  2757.  2757.  2761.  2771.  2771.  2778.  2778.  2780.  2782.
  2777.  2782.  2786.  2786.  2792.  2791.  2801.  2805.  2809.  2811.
  2816.  2817.  2817.  2819.  2828.  2827.  2834.  2839.  2840.  2836.
  2836.  2840.  2843.  2843.  2842.  2844.  2842.  2847.  2850.  2857.
  2857.  2855.  2856.  2857.  2856.  2853.  2855.  2849.  2847.  2844.
  2846.  2836.  2830.  2834.  2831.  2824.  2826.  2824.  2820.  2817.
  2815.  2815.  2814.  2812.  2808.  2810.  2804.  2802.  2801.  2798.
  2795.  2785.  2785.  2779.  2773.  2767.  2756.  2748.  2741.  2757.
  2762.  2433.  1924.  1057.   414.   389.  1129.  1726.  2080.  2273.
  2416.  2568.  2672.  2704.  2694.  2666.  2699.  2692.  2695.  2700.
  2668.  2663.  2663.  2663.  2663.  2665.  2666.  2666.  2666.  2670.
  2667.  2667.  2667.  2668.  2676.  2677.  2675.  2675.  2675.  2680.
  2676.  2674.  2680.  2676.  2678.  2677.  2678.  2671.  2672.  2672.
  2662.  2658.  2658.  2659.  2656.  2651.  2657.  2653.  2655.  2649.
  2649.  2654.  2649.  2646.  2644.  2645.  2645.  2646.  2644.  2644.
  2644.  2641.  2646.  2639.  2638.  2641.  2640.  2639.  2639.  2641.
  2641.  2644.  2657.  2663.  2660.  2668.  2666.  2668.  2675.  2666.
  2667.  2674.  2674.  2674.  2677.  2683.  2682.  2688.  2688.  2689.
  2692.  2690.  2700.  2700.  2696.  2696.  2702.  2697.  2697.  2701.
  2700.  2698.  2702.  2702.  2705.  2706.  2711.  2712.  2712.  2732.
  2729.  2729.  2729.  2730.  2729.  2735.  2741.  2746.  2745.  2755.
  2754.  2761.  2770.  2771.  2778.  2781.  2786.  2793.  2794.  2802.
  2810.  2816.  2817.  2817.  2818.  2825.  2824.  2827.  2826.  2826.
  2830.  2831.  2832.  2835.  2836.  2839.  2840.  2852.  2852.  2849.
  2855.  2853.  2858.  2866.  2864.  2866.  2868.  2870.  2869.  2873.
  2870.  2880.  2889.  2875.  2868.  2878.  2880.  2879.  2874.  2872.
  2871.  2874.  2875.  2869.  2872.  2868.  2868.  2864.  2862.  2859.
  2857.  2853.  2852.  2851.  2846.  2845.  2844.  2844.  2841.  2836.
  2837.  2834.  2830.  2830.  2830.  2826.  2830.  2826.  2824.  2823.
  2820.  2813.  2814.  2812.  2812.  2808.  2805.  2802.  2795.  2796.
  2788.  2782.  2779.  2767.  2763.  2758.  2748.  2740.  2735.  2729.
  2712.  2704.  2694.  2687.  2686.  2670.  2650.  2640.  2635.  2630.
  2622.  2614.  2614.  2604.  2601.  2604.  2594.  2593.  2599.  2594.
  2592.  2589.  2591.  2589.  2588.  2589.  2584.  2585.  2588.  2585.
  2584.  2582.  2586.  2582.  2583.  2582.  2587.  2588.  2588.  2589.
  2590.  2591.  2592.  2594.  2594.  2595.  2596.  2597.  2601.  2604.
  2604.  2602.  2604.  2606.  2609.  2608.  2609.  2611.  2613.  2610.
  2614.  2615.  2615.  2619.  2617.  2619.  2612.  2638.  2649.  1985.]","4x = 24","0","return","NA","NA","return","1134","NA","NA","1134","LinregressResult(slope=-0.044449317717665984, intercept=2712.7572054588704, rvalue=-0.02870503707503792, pvalue=0.52613246961543347, stderr=0.070067734776450688)","2","legacy","-0.0444493177177","1024","2","48000","-16","experiment","3194.0,3188.0,3183.0,3181.0,3177.0,3171.0,3170.0,3163.0,3157.0,3157.0,3152.0,3151.0,3147.0,3136.0,3124.0,3123.0,3113.0,3096.0,3086.0,3072.0,3063.0,3052.0,3041.0,3029.0,3017.0,3002.0,2986.0,2973.0,2962.0,2955.0,2939.0,2928.0,2928.0,2922.0,2911.0,2902.0,2897.0,2891.0,2889.0,2883.0,2877.0,2869.0,2873.0,2872.0,2870.0,2870.0,2871.0,2871.0,2865.0,2865.0,2877.0,2872.0,2877.0,2877.0,2873.0,2889.0,2955.0,2164.0,0.0,0.0,0.0,0.0,370.0,0.0,981.0,1136.0,1750.0,1973.0,2177.0,2401.0,2600.0,2654.0,2741.0,2843.0,2946.0","2956.0,2949.0,2921.0,2902.0,2901.0,2906.0,2914.0,2905.0,2899.0,2901.0,2887.0,2864.0,2860.0,2838.0,2838.0,2832.0,2821.0,2812.0,2810.0,2807.0,2802.0,2796.0,2794.0,2789.0,2783.0,2776.0,2768.0,2769.0,2766.0,2762.0,2759.0,2755.0,2750.0,2745.0,2744.0,2739.0,2730.0,2725.0,2720.0,2717.0,2715.0,2712.0,2703.0,2701.0,2694.0,2692.0,2688.0,2682.0,2675.0,2672.0,2671.0,2663.0,2662.0,2657.0,2648.0,2643.0,2636.0,2633.0,2625.0,2623.0,2616.0,2612.0,2606.0,2596.0,2596.0,2589.0,2584.0,2577.0,2572.0,2569.0,2566.0,2563.0,2561.0,2559.0,2557.0,2553.0,2559.0,2565.0,2551.0,2551.0,2553.0,2557.0,2555.0,2558.0,2565.0,2569.0,2571.0,2582.0,2588.0,2594.0,2601.0,2611.0,2621.0,2627.0,2635.0,2646.0,2654.0,2663.0,2669.0,2677.0,2687.0,2696.0,2703.0,2705.0,2719.0,2723.0,2733.0,2738.0,2739.0,2747.0,2756.0,2757.0,2757.0,2761.0,2771.0,2771.0,2778.0,2778.0,2780.0,2782.0,2777.0,2782.0,2786.0,2786.0,2792.0,2791.0,2801.0,2805.0,2809.0,2811.0,2816.0,2817.0,2817.0,2819.0,2828.0,2827.0,2834.0,2839.0,2840.0,2836.0,2836.0,2840.0,2843.0,2843.0,2842.0,2844.0,2842.0,2847.0,2850.0,2857.0,2857.0,2855.0,2856.0,2857.0,2856.0,2853.0,2855.0,2849.0,2847.0,2844.0,2846.0,2836.0,2830.0,2834.0,2831.0,2824.0,2826.0,2824.0,2820.0,2817.0,2815.0,2815.0,2814.0,2812.0,2808.0,2810.0,2804.0,2802.0,2801.0,2798.0,2795.0,2785.0,2785.0,2779.0,2773.0,2767.0,2756.0,2748.0,2741.0,2757.0,2762.0,2433.0,1924.0,1057.0,0.0,414.0,389.0,0.0,0.0,1129.0,1726.0,2080.0,2273.0,2416.0,2568.0,2672.0,2704.0,2694.0,2666.0,2699.0,2692.0,2695.0,2700.0,2668.0,2663.0,2663.0,2663.0,2663.0,2665.0,2666.0,2666.0,2666.0,2670.0,2667.0,2667.0,2667.0,2668.0,2676.0,2677.0,2675.0,2675.0,2675.0,2680.0,2676.0,2674.0,2680.0,2676.0,2678.0,2677.0,2678.0,2671.0,2672.0,2672.0,2662.0,2658.0,2658.0,2659.0,2656.0,2651.0,2657.0,2653.0,2655.0,2649.0,2649.0,2654.0,2649.0,2646.0,2644.0,2645.0,2645.0,2646.0,2644.0,2644.0,2644.0,2641.0,2646.0,2639.0,2638.0,2641.0,2640.0,2639.0,2639.0,2641.0,2641.0,2644.0,2657.0,2663.0,2660.0,2668.0,2666.0,2668.0,2675.0,2666.0,2667.0,2674.0,2674.0,2674.0,2677.0,2683.0,2682.0,2688.0,2688.0,2689.0,2692.0,2690.0,2700.0,2700.0,2696.0,2696.0,2702.0,2697.0,2697.0,2701.0,2700.0,2698.0,2702.0,2702.0,2705.0,2706.0,2711.0,2712.0,2712.0,2732.0,2729.0,2729.0,2729.0,2730.0,2729.0,2735.0,2741.0,2746.0,2745.0,2755.0,2754.0,2761.0,2770.0,2771.0,2778.0,2781.0,2786.0,2793.0,2794.0,2802.0,2810.0,2816.0,2817.0,2817.0,2818.0,2825.0,2824.0,2827.0,2826.0,2826.0,2830.0,2831.0,2832.0,2835.0,2836.0,2839.0,2840.0,2852.0,2852.0,2849.0,2855.0,2853.0,2858.0,2866.0,2864.0,2866.0,2868.0,2870.0,2869.0,2873.0,2870.0,2880.0,2889.0,2875.0,2868.0,2878.0,2880.0,2879.0,2874.0,2872.0,2871.0,2874.0,2875.0,2869.0,2872.0,2868.0,2868.0,2864.0,2862.0,2859.0,2857.0,2853.0,2852.0,2851.0,2846.0,2845.0,2844.0,2844.0,2841.0,2836.0,2837.0,2834.0,2830.0,2830.0,2830.0,2826.0,2830.0,2826.0,2824.0,2823.0,2820.0,2813.0,2814.0,2812.0,2812.0,2808.0,2805.0,2802.0,2795.0,2796.0,2788.0,2782.0,2779.0,2767.0,2763.0,2758.0,2748.0,2740.0,2735.0,2729.0,2712.0,2704.0,2694.0,2687.0,2686.0,2670.0,2650.0,2640.0,2635.0,2630.0,2622.0,2614.0,2614.0,2604.0,2601.0,2604.0,2594.0,2593.0,2599.0,2594.0,2592.0,2589.0,2591.0,2589.0,2588.0,2589.0,2584.0,2585.0,2588.0,2585.0,2584.0,2582.0,2586.0,2582.0,2583.0,2582.0,2587.0,2588.0,2588.0,2589.0,2590.0,2591.0,2592.0,2594.0,2594.0,2595.0,2596.0,2597.0,2601.0,2604.0,2604.0,2602.0,2604.0,2606.0,2609.0,2608.0,2609.0,2611.0,2613.0,2610.0,2614.0,2615.0,2615.0,2619.0,2617.0,2619.0,2612.0,2638.0,2649.0,1985.0,0.0,0.0,0.0,0.0,0.0,0.0,0.0","11","odd","NA","NA","NA","arithmetic","94356","191871","NA","92155","196872","NA","91731","NA","NA","1554","189117","NA","191117","NA","191872","NA","1646","NA","NA","NA","197192","NA","187104","NA","196873","NA","188764","NA","186214","NA","92156","2780","NA","NA","NA","NA","91731","187104","NA","Extended template","0","0","0","yes","1024"
"undefined","undefined","undefined","undefined","black","[ 2626.  2629.  2629.  2629.  2629.  2631.  2634.  2636.  2640.  2642.
  2647.  2649.  2652.  2656.  2660.  2666.  2666.  2665.  2670.  2672.
  2672.  2675.  2682.  2676.  2684.  2684.  2687.  2687.  2686.  2691.
  2692.  2690.  2692.  2694.  2693.  2690.  2690.  2688.  2694.  2691.
  2691.  2689.  2690.  2691.  2696.  2700.  2696.  2696.  2696.  2701.
  2702.  2704.  2710.  2717.  2715.  2722.  2719.  2724.  2729.  2730.
  2729.  2735.  2744.  2741.  2741.  2747.  2745.  2751.  2753.  2755.
  2760.  2763.  2770.  2773.  2779.]","yes","xpyriment","legacy","legacy","0","uniform","undefined","undefined","0","9","NA","0","9","NA","0","0","0","0","9","NA","9","NA","9","NA","0","0","NA","NA","9","NA","9","NA","9","NA","9","NA","9","NA","0","0","0","0","NA","NA","0","9","NA","10/18/18 15:06:02","A template containing a practice and an experimental phase","medium","yes","Experiment.osexp","C:\Users\EEGExp\Desktop","no","mono","no","18","no","white","no","Ok","yes","768","legacy","9","9","0","C:/Users/EEGExp/Desktop/subject-11.csv","xpyriment","","Kafkaesque Koffka","3.2.5","yes","[ 2783.  2790.  2789.  2799.  2798.  2803.  2805.  2807.  2815.  2816.
  2818.  2821.  2827.  2828.  2832.  2832.  2837.  2839.  2842.  2842.
  2848.  2850.  2855.  2859.  2862.  2863.  2862.  2865.  2863.  2859.
  2861.  2860.  2857.  2855.  2857.  2852.  2850.  2849.  2847.  2842.
  2841.  2837.  2829.  2825.  2825.  2814.  2807.  2806.  2798.  2791.
  2802.  2787.  2782.  2777.  2773.  2766.  2762.  2757.  2746.  2743.
  2736.  2731.  2725.  2717.  2707.  2701.  2689.  2686.  2685.  2677.
  2671.  2673.  2663.  2661.  2654.  2650.  2642.  2638.  2633.  2624.
  2621.  2614.  2610.  2607.  2599.  2597.  2592.  2586.  2587.  2583.
  2581.  2576.  2579.  2575.  2575.  2581.  2579.  2585.  2585.  2583.
  2587.  2589.  2595.  2632.  1675.   354.   927.  1135.  1820.  2064.
  2308.  2414.  2586.  2680.  2683.  2672.  2651.  2665.  2671.  2673.
  2659.  2641.  2643.  2652.  2660.  2663.  2667.  2672.  2677.  2678.
  2679.  2685.  2685.  2690.  2689.  2698.  2693.  2694.  2700.  2702.
  2705.  2704.  2708.  2706.  2703.  2702.  2701.  2704.  2696.  2694.
  2688.  2679.  2677.  2671.  2664.  2660.  2657.  2650.  2646.  2643.
  2643.  2637.  2637.  2633.  2633.  2635.  2640.  2634.  2634.  2636.
  2635.  2632.  2633.  2632.  2635.  2638.  2641.  2641.  2641.  2645.
  2650.  2657.  2661.  2661.  2669.  2672.  2677.  2680.  2684.  2691.
  2696.  2707.  2704.  2714.  2718.  2724.  2726.  2725.  2734.  2739.
  2744.  2751.  2747.  2753.  2758.  2766.  2771.  2761.  2769.  2765.
  2765.  2765.  2765.  2761.  2756.  2759.  2754.  2753.  2754.  2755.
  2751.  2751.  2751.  2752.  2749.  2749.  2746.  2745.  2742.  2739.
  2738.  2738.  2741.  2736.  2738.  2734.  2734.  2731.  2730.  2727.
  2730.  2729.  2730.  2732.  2732.  2735.  2735.  2730.  2722.  2723.
  2723.  2722.  2722.  2717.  2716.  2714.  2717.  2715.  2717.  2716.
  2715.  2712.  2712.  2710.  2708.  2708.  2707.  2708.  2709.  2698.
  2703.  2705.  2705.  2702.  2702.  2722.  2751.  2139.  1078.   363.
   334.   280.   291.   356.  1015.  1210.  1917.  2246.  2462.  2647.
  2805.  2838.  2823.  2829.  2832.  2838.  2818.  2815.  2822.  2822.
  2825.  2829.  2826.  2830.  2830.  2833.  2831.  2833.  2833.  2832.
  2833.  2830.  2833.  2832.  2831.  2829.  2831.  2825.  2819.  2817.
  2804.  2802.  2795.  2784.  2777.  2759.  2748.  2740.  2726.  2728.
  2711.  2702.  2687.  2684.  2678.  2668.  2668.  2660.  2659.  2650.
  2649.  2648.  2643.  2643.  2636.  2633.  2634.  2639.  2642.  2639.
  2642.  2638.  2639.  2639.  2637.  2641.  2646.  2649.  2650.  2657.
  2660.  2662.  2666.  2665.  2666.  2667.  2675.  2678.  2677.  2686.
  2686.  2696.  2692.  2697.  2699.  2701.  2708.  2712.  2712.  2715.
  2721.  2722.  2720.  2726.  2727.  2726.  2739.  2743.  2742.  2745.
  2751.  2756.  2754.  2760.  2767.  2771.  2773.  2778.  2778.  2782.
  2788.  2795.  2801.  2797.  2804.  2804.  2811.  2821.  2820.  2823.
  2828.  2834.  2833.  2840.  2842.  2845.  2852.  2854.  2858.  2854.
  2856.  2858.  2859.  2860.  2863.  2862.  2864.  2865.  2869.  2867.
  2868.  2873.  2868.  2868.  2866.  2871.  2869.  2864.  2862.  2860.
  2854.  2852.  2852.  2848.  2843.  2838.  2830.  2824.  2817.  2808.
  2806.  2801.  2793.  2784.  2781.  2773.  2765.  2759.  2762.  2753.
  2754.  2753.  2747.  2740.  2738.  2731.  2729.  2725.  2717.  2716.
  2711.  2712.  2705.  2702.  2700.  2692.  2688.  2682.  2685.  2677.
  2675.  2673.  2671.  2661.  2664.  2662.  2661.  2660.  2659.  2657.]","2x = 6","0","return","NA","NA","return","1134","NA","NA","1134","LinregressResult(slope=0.13212651821939775, intercept=2643.9425316138722, rvalue=0.056424927536482171, pvalue=0.21246259307934007, stderr=0.10583190640493216)","2","legacy","0.132126518219","1024","2","48000","-16","experiment","2626.0,2629.0,2629.0,2629.0,2629.0,2631.0,2634.0,2636.0,2640.0,2642.0,2647.0,2649.0,2652.0,2656.0,2660.0,2666.0,2666.0,2665.0,2670.0,2672.0,2672.0,2675.0,2682.0,2676.0,2684.0,2684.0,2687.0,2687.0,2686.0,2691.0,2692.0,2690.0,2692.0,2694.0,2693.0,2690.0,2690.0,2688.0,2694.0,2691.0,2691.0,2689.0,2690.0,2691.0,2696.0,2700.0,2696.0,2696.0,2696.0,2701.0,2702.0,2704.0,2710.0,2717.0,2715.0,2722.0,2719.0,2724.0,2729.0,2730.0,2729.0,2735.0,2744.0,2741.0,2741.0,2747.0,2745.0,2751.0,2753.0,2755.0,2760.0,2763.0,2770.0,2773.0,2779.0","2783.0,2790.0,2789.0,2799.0,2798.0,2803.0,2805.0,2807.0,2815.0,2816.0,2818.0,2821.0,2827.0,2828.0,2832.0,2832.0,2837.0,2839.0,2842.0,2842.0,2848.0,2850.0,2855.0,2859.0,2862.0,2863.0,2862.0,2865.0,2863.0,2859.0,2861.0,2860.0,2857.0,2855.0,2857.0,2852.0,2850.0,2849.0,2847.0,2842.0,2841.0,2837.0,2829.0,2825.0,2825.0,2814.0,2807.0,2806.0,2798.0,2791.0,2802.0,2787.0,2782.0,2777.0,2773.0,2766.0,2762.0,2757.0,2746.0,2743.0,2736.0,2731.0,2725.0,2717.0,2707.0,2701.0,2689.0,2686.0,2685.0,2677.0,2671.0,2673.0,2663.0,2661.0,2654.0,2650.0,2642.0,2638.0,2633.0,2624.0,2621.0,2614.0,2610.0,2607.0,2599.0,2597.0,2592.0,2586.0,2587.0,2583.0,2581.0,2576.0,2579.0,2575.0,2575.0,2581.0,2579.0,2585.0,2585.0,2583.0,2587.0,2589.0,2595.0,2632.0,1675.0,0.0,0.0,0.0,0.0,0.0,0.0,0.0,0.0,354.0,927.0,1135.0,1820.0,2064.0,2308.0,2414.0,2586.0,2680.0,2683.0,2672.0,2651.0,2665.0,2671.0,2673.0,2659.0,2641.0,2643.0,2652.0,2660.0,2663.0,2667.0,2672.0,2677.0,2678.0,2679.0,2685.0,2685.0,2690.0,2689.0,2698.0,2693.0,2694.0,2700.0,2702.0,2705.0,2704.0,2708.0,2706.0,2703.0,2702.0,2701.0,2704.0,2696.0,2694.0,2688.0,2679.0,2677.0,2671.0,2664.0,2660.0,2657.0,2650.0,2646.0,2643.0,2643.0,2637.0,2637.0,2633.0,2633.0,2635.0,2640.0,2634.0,2634.0,2636.0,2635.0,2632.0,2633.0,2632.0,2635.0,2638.0,2641.0,2641.0,2641.0,2645.0,2650.0,2657.0,2661.0,2661.0,2669.0,2672.0,2677.0,2680.0,2684.0,2691.0,2696.0,2707.0,2704.0,2714.0,2718.0,2724.0,2726.0,2725.0,2734.0,2739.0,2744.0,2751.0,2747.0,2753.0,2758.0,2766.0,2771.0,2761.0,2769.0,2765.0,2765.0,2765.0,2765.0,2761.0,2756.0,2759.0,2754.0,2753.0,2754.0,2755.0,2751.0,2751.0,2751.0,2752.0,2749.0,2749.0,2746.0,2745.0,2742.0,2739.0,2738.0,2738.0,2741.0,2736.0,2738.0,2734.0,2734.0,2731.0,2730.0,2727.0,2730.0,2729.0,2730.0,2732.0,2732.0,2735.0,2735.0,2730.0,2722.0,2723.0,2723.0,2722.0,2722.0,2717.0,2716.0,2714.0,2717.0,2715.0,2717.0,2716.0,2715.0,2712.0,2712.0,2710.0,2708.0,2708.0,2707.0,2708.0,2709.0,2698.0,2703.0,2705.0,2705.0,2702.0,2702.0,2722.0,2751.0,2139.0,1078.0,0.0,363.0,334.0,280.0,291.0,356.0,0.0,1015.0,1210.0,1917.0,2246.0,2462.0,2647.0,2805.0,2838.0,2823.0,2829.0,2832.0,2838.0,2818.0,2815.0,2822.0,2822.0,2825.0,2829.0,2826.0,2830.0,2830.0,2833.0,2831.0,2833.0,2833.0,2832.0,2833.0,2830.0,2833.0,2832.0,2831.0,2829.0,2831.0,2825.0,2819.0,2817.0,2804.0,2802.0,2795.0,2784.0,2777.0,2759.0,2748.0,2740.0,2726.0,2728.0,2711.0,2702.0,2687.0,2684.0,2678.0,2668.0,2668.0,2660.0,2659.0,2650.0,2649.0,2648.0,2643.0,2643.0,2636.0,2633.0,2634.0,2639.0,2642.0,2639.0,2642.0,2638.0,2639.0,2639.0,2637.0,2641.0,2646.0,2649.0,2650.0,2657.0,2660.0,2662.0,2666.0,2665.0,2666.0,2667.0,2675.0,2678.0,2677.0,2686.0,2686.0,2696.0,2692.0,2697.0,2699.0,2701.0,2708.0,2712.0,2712.0,2715.0,2721.0,2722.0,2720.0,2726.0,2727.0,2726.0,2739.0,2743.0,2742.0,2745.0,2751.0,2756.0,2754.0,2760.0,2767.0,2771.0,2773.0,2778.0,2778.0,2782.0,2788.0,2795.0,2801.0,2797.0,2804.0,2804.0,2811.0,2821.0,2820.0,2823.0,2828.0,2834.0,2833.0,2840.0,2842.0,2845.0,2852.0,2854.0,2858.0,2854.0,2856.0,2858.0,2859.0,2860.0,2863.0,2862.0,2864.0,2865.0,2869.0,2867.0,2868.0,2873.0,2868.0,2868.0,2866.0,2871.0,2869.0,2864.0,2862.0,2860.0,2854.0,2852.0,2852.0,2848.0,2843.0,2838.0,2830.0,2824.0,2817.0,2808.0,2806.0,2801.0,2793.0,2784.0,2781.0,2773.0,2765.0,2759.0,2762.0,2753.0,2754.0,2753.0,2747.0,2740.0,2738.0,2731.0,2729.0,2725.0,2717.0,2716.0,2711.0,2712.0,2705.0,2702.0,2700.0,2692.0,2688.0,2682.0,2685.0,2677.0,2675.0,2673.0,2671.0,2661.0,2664.0,2662.0,2661.0,2660.0,2659.0,2657.0","11","odd","NA","NA","NA","arithmetic","94356","202227","NA","92155","207228","NA","91731","NA","NA","1554","199473","NA","201473","NA","202228","NA","1646","NA","NA","NA","207548","NA","198088","NA","207229","NA","199120","NA","197209","NA","92156","2780","NA","NA","NA","NA","91731","198088","NA","Extended template","0","0","0","yes","1024"
"undefined","undefined","undefined","undefined","black","[ 2416.  2421.  2418.  2420.  2419.  2421.  2421.  2427.  2428.  2430.
  2433.  2441.  2442.  2445.  2452.  2458.  2463.  2468.  2471.  2476.
  2480.  2486.  2494.  2498.  2503.  2505.  2508.  2514.  2521.  2523.
  2526.  2527.  2536.  2543.  2547.  2554.  2554.  2557.  2560.  2561.
  2564.  2571.  2571.  2573.  2578.  2581.  2585.  2586.  2592.  2597.
  2594.  2599.  2601.  2606.  2609.  2614.  2614.  2613.  2617.  2615.
  2621.  2621.  2625.  2629.  2633.  2634.  2640.  2639.  2644.  2646.
  2649.  2653.  2654.  2661.  2662.]","yes","xpyriment","legacy","legacy","0","uniform","undefined","undefined","0","10","NA","0","10","NA","0","0","0","0","10","NA","10","NA","10","NA","0","0","NA","NA","10","NA","10","NA","10","NA","10","NA","10","NA","0","0","0","0","NA","NA","0","10","NA","10/18/18 15:06:02","A template containing a practice and an experimental phase","easy","yes","Experiment.osexp","C:\Users\EEGExp\Desktop","no","mono","no","18","no","white","no","Ok","yes","768","legacy","10","10","0","C:/Users/EEGExp/Desktop/subject-11.csv","xpyriment","","Kafkaesque Koffka","3.2.5","yes","[ 2666.  2669.  2675.  2677.  2675.  2678.  2681.  2683.  2678.  2682.
  2688.  2692.  2695.  2695.  2695.  2696.  2700.  2699.  2708.  2709.
  2714.  2717.  2723.  2727.  2733.  2741.  2745.  2750.  2759.  2761.
  2767.  2775.  2784.  2788.  2789.  2797.  2798.  2812.  2817.  2815.
  2823.  2825.  2826.  2826.  2830.  2830.  2830.  2835.  2834.  2830.
  2831.  2830.  2828.  2834.  2831.  2837.  2840.  2840.  2843.  2844.
  2845.  2845.  2851.  2850.  2856.  2859.  2859.  2859.  2867.  2862.
  2869.  2867.  2873.  2873.  2879.  2882.  2880.  2882.  2887.  2887.
  2889.  2890.  2894.  2898.  2899.  2900.  2900.  2901.  2914.  2916.
  2920.  2922.  2925.  2928.  2937.  2946.  2948.  2951.  2958.  2960.
  2968.  2980.  2985.  2988.  2994.  2995.  2998.  3008.  3012.  3016.
  3027.  3031.  3033.  3036.  3042.  3051.  3052.  3062.  3051.  3060.
  3064.  3070.  3072.  3073.  3081.  3075.  3103.  3057.  2597.  1979.
  1076.   446.   430.  1052.  1303.  2035.  2410.  2700.  2871.  3061.
  3168.  3159.  3111.  3126.  3124.  3118.  3105.  3066.  3065.  3065.
  3055.  3051.  3048.  3047.  3042.  3031.  3029.  3024.  3020.  3013.
  3010.  3001.  3000.  2996.  2986.  2985.  2976.  2974.  2970.  2967.
  2968.  2954.  2952.  2947.  2942.  2937.  2927.  2918.  2911.  2912.
  2905.  2903.  2897.  2892.  2884.  2885.  2882.  2880.  2881.  2878.
  2880.  2876.  2876.  2878.  2879.  2878.  2881.  2879.  2885.  2880.
  2886.  2883.  2883.  2886.  2890.  2892.  2889.  2889.  2898.  2893.
  2897.  2899.  2898.  2898.  2905.  2901.  2900.  2902.  2902.  2907.
  2906.  2903.  2903.  2903.  2904.  2907.  2908.  2907.  2907.  2915.
  2912.  2914.  2914.  2918.  2914.  2908.  2910.  2910.  2911.  2906.
  2910.  2918.  2918.  2915.  2910.  2909.  2910.  2906.  2907.  2901.
  2902.  2899.  2904.  2901.  2897.  2894.  2894.  2891.  2891.  2893.
  2884.  2891.  2891.  2886.  2890.  2890.  2887.  2886.  2879.  2883.
  2882.  2880.  2877.  2875.  2880.  2873.  2873.  2874.  2872.  2875.
  2873.  2870.  2875.  2875.  2873.  2867.  2872.  2872.  2873.  2872.
  2871.  2879.  2881.  2884.  2880.  2881.  2881.  2881.  2881.  2879.
  2885.  2886.  2887.  2890.  2922.  2681.  1745.   347.   720.  1076.
  1658.  1926.  2227.  2513.  2720.  2811.  2950.  3019.  3032.  2980.
  2961.  2975.  2981.  2980.  2972.  2961.  2945.  2927.  2926.  2920.
  2917.  2911.  2908.  2905.  2906.  2906.  2903.  2911.  2910.  2911.
  2910.  2912.  2913.  2918.  2925.  2931.  2933.  2936.  2941.  2949.
  2952.  2957.  2962.  2973.  2973.  2984.  2991.  2994.  3004.  3010.
  3016.  3025.  3033.  3040.  3044.  3052.  3060.  3063.  3068.  3077.
  3081.  3084.  3081.  3091.  3092.  3094.  3089.  3093.  3095.  3098.
  3095.  3099.  3101.  3097.  3095.  3096.  3096.  3096.  3091.  3090.
  3087.  3081.  3081.  3072.  3067.  3062.  3058.  3042.  3040.  3036.
  3026.  3024.  3010.  3006.  2999.  2999.  2991.  2989.  2977.  2973.
  2970.  2963.  2959.  2959.  2951.  2949.  2948.  2943.  2946.  2938.
  2942.  2941.  2936.  2938.  2939.  2945.  2942.  2945.  2944.  2946.
  2950.  2954.  2953.  2961.  2962.  2963.  2972.  2972.  2976.  2979.
  2992.  2993.  2997.  2998.  3001.  3011.  3019.  3024.  3030.  3035.
  3040.  3046.  3057.  3063.  3064.  3073.  3077.  3081.  3088.  3089.
  3096.  3098.  3097.  3100.  3106.  3112.  3118.  3116.  3123.  3123.
