"acc","accuracy","average_response_time","avg","avg_rt","background","bidi","canvas_backend","clock_backend","color_backend","compensation","coordinates","correct","correct_instructions","count_arithmetic","count_arithmetic_task","count_blank_screen_1","count_blocksequence","count_calc_slope","count_calc_slope_1","count_collect_pupil_trace","count_end_of_experiment","count_end_of_practice","count_experiment","count_fixation_cross","count_fixation_cross_1","count_getdata","count_getdata_1","count_instructions","count_instructions2","count_letter_task_1","count_new_inline_script","count_new_logger","count_new_logger_1","count_new_pygaze_drift_correct","count_new_pygaze_drift_correct_1","count_new_pygaze_log","count_new_pygaze_log_2","count_new_pygaze_start_recording","count_new_pygaze_start_recording_1","count_new_pygaze_stop_recording","count_new_pygaze_stop_recording_1","count_practice_instructions","count_pygaze_init","count_reset_feedback","count_reversal","count_test","count_test1","count_training","count_trial_sequence","count_trial_sequence_1","datetime","description","difficulty","disable_garbage_collection","experiment_file","experiment_path","font_bold","font_family","font_italic","font_size","font_underline","foreground","form_clicks","form_response","fullscreen","height","keyboard_backend","live_row","live_row_arithmetic","live_row_training","logfile","mouse_backend","opensesame_codename","opensesame_version","practice","pupilsizes","question_no","repeat_cycle","response","response_end_of_experiment","response_end_of_practice","response_instructions","response_time","response_time_end_of_experiment","response_time_end_of_practice","response_time_instructions","result","round_decimals","sampler_backend","slope","sound_buf_size","sound_channels","sound_freq","sound_sample_size","start","str_pupilsizes","subject_nr","subject_parity","t0","t1","t2","tasktype","time_arithmetic","time_arithmetic_task","time_blank_screen_1","time_blocksequence","time_calc_slope","time_calc_slope_1","time_collect_pupil_trace","time_end_of_experiment","time_end_of_practice","time_experiment","time_fixation_cross","time_fixation_cross_1","time_getdata","time_getdata_1","time_instructions","time_instructions2","time_letter_task_1","time_new_inline_script","time_new_logger","time_new_logger_1","time_new_pygaze_drift_correct","time_new_pygaze_drift_correct_1","time_new_pygaze_log","time_new_pygaze_log_2","time_new_pygaze_start_recording","time_new_pygaze_start_recording_1","time_new_pygaze_stop_recording","time_new_pygaze_stop_recording_1","time_practice_instructions","time_pygaze_init","time_reset_feedback","time_reversal","time_test","time_test1","time_training","time_trial_sequence","time_trial_sequence_1","title","total_correct","total_response_time","total_responses","uniform_coordinates","width"
"undefined","undefined","undefined","NA","undefined","black","yes","xpyriment","legacy","legacy","0","uniform","undefined","undefined","0","0","NA","0","0","NA","0","0","0","0","0","NA","0","NA","0","0","NA","NA","0","NA","0","NA","0","NA","0","NA","0","NA","0","0","0","0","0","0","0","0","NA","10/16/18 16:32:09","A template containing a practice and an experimental phase","medium","yes","Experiment.osexp","C:\Users\lpater\Documents\usermodels\usermodels2\usermodels","no","mono","no","18","no","white","no","Ok","yes","768","legacy","0","0","0","C:/Users/lpater/Documents/usermodels/usermodels2/usermodels/subject-0.csv","xpyriment","Kafkaesque Koffka","3.2.5","yes","[ 0.  2.  2.  2.  2.  2.  0.  0.  2.  0.  2.  2.  0.  2.  0.  0.  2.  0.
  2.  0.  0.  2.  0.  0.  0.  2.  0.  2.  0.  2.  2.  2.  0.  0.  0.  2.
  2.  2.  0.  2.  0.  0.  2.  0.  0.  0.  2.  0.  2.  2.  0.  2.  2.  0.
  0.  0.  0.  0.  2.  0.  0.  2.  2.  2.  2.  2.  0.  0.  0.  2.  2.  2.
  0.  0.  0.  0.  0.  2.  2.  2.  0.  2.  2.  2.  0.  2.  0.  2.  2.  2.
  2.  2.  2.  2.  0.  0.  2.  0.  0.  2.  0.  2.  0.  0.  0.  2.  2.  2.
  2.  0.  0.  0.  2.  2.  2.  2.  2.  0.  0.  0.  0.  0.  2.  0.  2.  0.
  0.  0.  0.  0.  2.  2.  0.  2.  2.  0.  2.  0.  0.  2.  2.  2.  2.  0.
  2.  2.  0.  0.  2.  0.  2.  0.  2.  2.  0.  2.  2.  0.  0.  2.  2.  2.
  0.  2.  2.  0.  0.  2.  2.  2.  0.  2.  2.  0.  2.  0.  0.  0.  0.  0.
  0.  0.  2.  2.  0.  0.  2.  2.  2.  2.  0.  2.  2.  2.  0.  0.  2.  2.
  0.  0.  0.  2.  2.  0.  2.  2.  2.  2.  2.  0.  0.  0.  0.  0.  0.  0.
  2.  0.  2.  2.  2.  0.  0.  2.  2.  2.  2.  0.  2.  2.  2.  2.  0.  0.
  0.  0.  2.  0.  2.  0.  2.  0.  0.  2.  0.  0.  0.  0.  2.  2.  0.  2.
  0.  2.  0.  2.  0.  2.  2.  0.  0.  0.  0.  2.  0.  0.  0.  2.  2.  0.
  0.  2.  0.  2.  2.  2.  0.  0.  2.  0.  2.  2.  0.  2.  2.  0.  2.  2.
  0.  2.  2.  0.  2.  0.  2.  2.  0.  0.  0.  0.  2.  2.  0.  0.  0.  2.
  2.  0.  0.  2.  0.  2.  0.  2.  2.  0.  2.  0.  0.  0.  2.  0.  2.  2.
  2.  2.  0.  0.  2.  2.  0.  2.  0.  2.  0.  2.  2.  2.  0.  2.  2.  0.
  2.  2.  0.  2.  2.  2.  0.  2.  0.  0.  0.  2.  0.  2.  2.  0.  0.  2.
  2.  2.  0.  0.  2.  0.  2.  2.  0.  2.  0.  0.  2.  2.  2.  0.  0.  0.
  0.  0.  0.  0.  0.  2.  2.  0.  2.  0.  2.  0.  0.  2.  0.  2.  0.  2.
  2.  2.  0.  2.]","3x = 15","0","space","NA","NA","space","1365","NA","NA","1365","LinregressResult(slope=-2.3250145313408166e-05, intercept=1.0246616541353384, rvalue=-0.0026852242399553997, pvalue=0.95730443923577613, stderr=0.00043401227316368856)","2","legacy","-2.32501453134e-05","1024","2","48000","-16","experiment","0.0,2.0,2.0,2.0,2.0,2.0,0.0,0.0,2.0,0.0,2.0,2.0,0.0,2.0,0.0,0.0,2.0,0.0,2.0,0.0,0.0,2.0,0.0,0.0,0.0,2.0,0.0,2.0,0.0,2.0,2.0,2.0,0.0,0.0,0.0,2.0,2.0,2.0,0.0,2.0,0.0,0.0,2.0,0.0,0.0,0.0,2.0,0.0,2.0,2.0,0.0,2.0,2.0,0.0,0.0,0.0,0.0,0.0,2.0,0.0,0.0,2.0,2.0,2.0,2.0,2.0,0.0,0.0,0.0,2.0,2.0,2.0,0.0,0.0,0.0,0.0,0.0,2.0,2.0,2.0,0.0,2.0,2.0,2.0,0.0,2.0,0.0,2.0,2.0,2.0,2.0,2.0,2.0,2.0,0.0,0.0,2.0,0.0,0.0,2.0,0.0,2.0,0.0,0.0,0.0,2.0,2.0,2.0,2.0,0.0,0.0,0.0,2.0,2.0,2.0,2.0,2.0,0.0,0.0,0.0,0.0,0.0,2.0,0.0,2.0,0.0,0.0,0.0,0.0,0.0,2.0,2.0,0.0,2.0,2.0,0.0,2.0,0.0,0.0,2.0,2.0,2.0,2.0,0.0,2.0,2.0,0.0,0.0,2.0,0.0,2.0,0.0,2.0,2.0,0.0,2.0,2.0,0.0,0.0,2.0,2.0,2.0,0.0,2.0,2.0,0.0,0.0,2.0,2.0,2.0,0.0,2.0,2.0,0.0,2.0,0.0,0.0,0.0,0.0,0.0,0.0,0.0,2.0,2.0,0.0,0.0,2.0,2.0,2.0,2.0,0.0,2.0,2.0,2.0,0.0,0.0,2.0,2.0,0.0,0.0,0.0,2.0,2.0,0.0,2.0,2.0,2.0,2.0,2.0,0.0,0.0,0.0,0.0,0.0,0.0,0.0,2.0,0.0,2.0,2.0,2.0,0.0,0.0,2.0,2.0,2.0,2.0,0.0,2.0,2.0,2.0,2.0,0.0,0.0,0.0,0.0,2.0,0.0,2.0,0.0,2.0,0.0,0.0,2.0,0.0,0.0,0.0,0.0,2.0,2.0,0.0,2.0,0.0,2.0,0.0,2.0,0.0,2.0,2.0,0.0,0.0,0.0,0.0,2.0,0.0,0.0,0.0,2.0,2.0,0.0,0.0,2.0,0.0,2.0,2.0,2.0,0.0,0.0,2.0,0.0,2.0,2.0,0.0,2.0,2.0,0.0,2.0,2.0,0.0,2.0,2.0,0.0,2.0,0.0,2.0,2.0,0.0,0.0,0.0,0.0,2.0,2.0,0.0,0.0,0.0,2.0,2.0,0.0,0.0,2.0,0.0,2.0,0.0,2.0,2.0,0.0,2.0,0.0,0.0,0.0,2.0,0.0,2.0,2.0,2.0,2.0,0.0,0.0,2.0,2.0,0.0,2.0,0.0,2.0,0.0,2.0,2.0,2.0,0.0,2.0,2.0,0.0,2.0,2.0,0.0,2.0,2.0,2.0,0.0,2.0,0.0,0.0,0.0,2.0,0.0,2.0,2.0,0.0,0.0,2.0,2.0,2.0,0.0,0.0,2.0,0.0,2.0,2.0,0.0,2.0,0.0,0.0,2.0,2.0,2.0,0.0,0.0,0.0,0.0,0.0,0.0,0.0,0.0,2.0,2.0,0.0,2.0,0.0,2.0,0.0,0.0,2.0,0.0,2.0,0.0,2.0,2.0,2.0,0.0,2.0","0","even","22365","27374","5009","arithmetic","19987","22372","NA","15661","27374","NA","10928","NA","NA","6310","20865","NA","22373","NA","6329","NA","NA","NA","27682","NA","20846","NA","27379","NA","20847","NA","NA","NA","15669","7696","NA","NA","27374","22365","10929","20846","NA","Extended template","0","0","0","yes","1024"
"undefined","undefined","undefined","NA","undefined","black","yes","xpyriment","legacy","legacy","0","uniform","undefined","undefined","0","1","NA","0","1","NA","0","0","0","0","1","NA","1","NA","0","0","NA","NA","1","NA","1","NA","1","NA","1","NA","1","NA","0","0","0","0","1","1","0","1","NA","10/16/18 16:32:09","A template containing a practice and an experimental phase","hard","yes","Experiment.osexp","C:\Users\lpater\Documents\usermodels\usermodels2\usermodels","no","mono","no","18","no","white","no","Ok","yes","768","legacy","1","1","0","C:/Users/lpater/Documents/usermodels/usermodels2/usermodels/subject-0.csv","xpyriment","Kafkaesque Koffka","3.2.5","yes","[ 0.  0.  0.  0.  2.  2.  0.  0.  0.  2.  2.  2.  0.  0.  0.  0.  2.  0.
  0.  0.  2.  2.  0.  2.  2.  0.  2.  2.  0.  2.  2.  0.  0.  2.  0.  2.
  0.  0.  2.  2.  0.  2.  2.  0.  2.  0.  2.  0.  0.  2.  0.  0.  2.  2.
  0.  2.  2.  0.  0.  2.  2.  0.  0.  2.  0.  2.  0.  0.  2.  0.  2.  0.
  2.  0.  2.  2.  0.  0.  0.  2.  0.  2.  0.  0.  2.  2.  2.  0.  0.  0.
  0.  2.  2.  0.  0.  2.  0.  2.  2.  0.  2.  0.  2.  2.  2.  0.  0.  0.
  0.  0.  2.  0.  2.  0.  0.  0.  2.  2.  0.  2.  0.  2.  0.  0.  2.  0.
  2.  0.  2.  0.  0.  2.  2.  0.  0.  0.  2.  2.  0.  2.  0.  2.  2.  2.
  0.  2.  2.  0.  0.  2.  0.  2.  2.  0.  2.  2.  0.  0.  0.  0.  0.  2.
  2.  0.  0.  2.  2.  2.  0.  0.  2.  0.  2.  2.  0.  2.  0.  2.  2.  0.
  2.  2.  0.  0.  2.  0.  0.  2.  2.  2.  0.  2.  2.  0.  2.  0.  2.  0.
  0.  0.  2.  0.  2.  0.  0.  0.  0.  2.  2.  0.  0.  0.  0.  0.  2.  2.
  2.  2.  2.  2.  2.  2.  0.  0.  0.  0.  0.  0.  0.  0.  0.  2.  2.  0.
  0.  0.  2.  0.  0.  2.  0.  0.  0.  2.  2.  2.  2.  0.  2.  0.  2.  2.
  2.  2.  0.  0.  0.  2.  2.  0.  0.  0.  0.  0.  0.  2.  2.  0.  0.  2.
  0.  0.  2.  0.  0.  0.  2.  0.  0.  2.  0.  2.  2.  0.  0.  2.  2.  0.
  0.  0.  0.  0.  2.  0.  0.  0.  0.  0.  2.  0.  2.  0.  0.  2.  2.  0.
  2.  0.  0.  0.  2.  0.  2.  0.  0.  0.  0.  2.  2.  0.  0.  0.  2.  2.
  0.  2.  0.  2.  0.  2.  2.  2.  2.  2.  2.  2.  2.  2.  2.  0.  2.  0.
  2.  2.  2.  0.  2.  0.  2.  0.  2.  2.  0.  0.  2.  0.  2.  0.  2.  0.
  0.  0.  0.  0.  0.  2.  0.  2.  2.  0.  2.  2.  0.  0.  2.  0.  2.  0.
  0.  0.  0.  2.  2.  0.  0.  0.  2.  2.  2.  2.  2.  2.  0.  2.  2.  2.
  0.  2.  0.  2.]","3x - 5 = 10","0","space","NA","NA","space","1365","NA","NA","1365","LinregressResult(slope=0.00022443890274314216, intercept=0.89000000000000001, rvalue=0.025970812609319986, pvalue=0.60454332444009262, stderr=0.00043303654653114232)","2","legacy","0.000224438902743","1024","2","48000","-16","experiment","0.0,0.0,0.0,0.0,2.0,2.0,0.0,0.0,0.0,2.0,2.0,2.0,0.0,0.0,0.0,0.0,2.0,0.0,0.0,0.0,2.0,2.0,0.0,2.0,2.0,0.0,2.0,2.0,0.0,2.0,2.0,0.0,0.0,2.0,0.0,2.0,0.0,0.0,2.0,2.0,0.0,2.0,2.0,0.0,2.0,0.0,2.0,0.0,0.0,2.0,0.0,0.0,2.0,2.0,0.0,2.0,2.0,0.0,0.0,2.0,2.0,0.0,0.0,2.0,0.0,2.0,0.0,0.0,2.0,0.0,2.0,0.0,2.0,0.0,2.0,2.0,0.0,0.0,0.0,2.0,0.0,2.0,0.0,0.0,2.0,2.0,2.0,0.0,0.0,0.0,0.0,2.0,2.0,0.0,0.0,2.0,0.0,2.0,2.0,0.0,2.0,0.0,2.0,2.0,2.0,0.0,0.0,0.0,0.0,0.0,2.0,0.0,2.0,0.0,0.0,0.0,2.0,2.0,0.0,2.0,0.0,2.0,0.0,0.0,2.0,0.0,2.0,0.0,2.0,0.0,0.0,2.0,2.0,0.0,0.0,0.0,2.0,2.0,0.0,2.0,0.0,2.0,2.0,2.0,0.0,2.0,2.0,0.0,0.0,2.0,0.0,2.0,2.0,0.0,2.0,2.0,0.0,0.0,0.0,0.0,0.0,2.0,2.0,0.0,0.0,2.0,2.0,2.0,0.0,0.0,2.0,0.0,2.0,2.0,0.0,2.0,0.0,2.0,2.0,0.0,2.0,2.0,0.0,0.0,2.0,0.0,0.0,2.0,2.0,2.0,0.0,2.0,2.0,0.0,2.0,0.0,2.0,0.0,0.0,0.0,2.0,0.0,2.0,0.0,0.0,0.0,0.0,2.0,2.0,0.0,0.0,0.0,0.0,0.0,2.0,2.0,2.0,2.0,2.0,2.0,2.0,2.0,0.0,0.0,0.0,0.0,0.0,0.0,0.0,0.0,0.0,2.0,2.0,0.0,0.0,0.0,2.0,0.0,0.0,2.0,0.0,0.0,0.0,2.0,2.0,2.0,2.0,0.0,2.0,0.0,2.0,2.0,2.0,2.0,0.0,0.0,0.0,2.0,2.0,0.0,0.0,0.0,0.0,0.0,0.0,2.0,2.0,0.0,0.0,2.0,0.0,0.0,2.0,0.0,0.0,0.0,2.0,0.0,0.0,2.0,0.0,2.0,2.0,0.0,0.0,2.0,2.0,0.0,0.0,0.0,0.0,0.0,2.0,0.0,0.0,0.0,0.0,0.0,2.0,0.0,2.0,0.0,0.0,2.0,2.0,0.0,2.0,0.0,0.0,0.0,2.0,0.0,2.0,0.0,0.0,0.0,0.0,2.0,2.0,0.0,0.0,0.0,2.0,2.0,0.0,2.0,0.0,2.0,0.0,2.0,2.0,2.0,2.0,2.0,2.0,2.0,2.0,2.0,2.0,0.0,2.0,0.0,2.0,2.0,2.0,0.0,2.0,0.0,2.0,0.0,2.0,2.0,0.0,0.0,2.0,0.0,2.0,0.0,2.0,0.0,0.0,0.0,0.0,0.0,0.0,2.0,0.0,2.0,2.0,0.0,2.0,2.0,0.0,0.0,2.0,0.0,2.0,0.0,0.0,0.0,0.0,2.0,2.0,0.0,0.0,0.0,2.0,2.0,2.0,2.0,2.0,2.0,0.0,2.0,2.0,2.0,0.0,2.0,0.0,2.0","0","even","30077","35086","5009","arithmetic","19987","30084","NA","15661","35086","NA","10928","NA","NA","6310","28576","NA","30085","NA","6329","NA","NA","NA","35391","NA","28558","NA","35087","NA","28559","NA","27703","NA","15669","7696","NA","NA","35086","30077","10929","28558","NA","Extended template","0","0","0","yes","1024"
"undefined","undefined","undefined","NA","undefined","black","yes","xpyriment","legacy","legacy","0","uniform","undefined","undefined","0","2","NA","0","2","NA","0","0","0","0","2","NA","2","NA","0","0","NA","NA","2","NA","2","NA","2","NA","2","NA","2","NA","0","0","0","0","2","2","0","2","NA","10/16/18 16:32:09","A template containing a practice and an experimental phase","easy","yes","Experiment.osexp","C:\Users\lpater\Documents\usermodels\usermodels2\usermodels","no","mono","no","18","no","white","no","Ok","yes","768","legacy","2","2","0","C:/Users/lpater/Documents/usermodels/usermodels2/usermodels/subject-0.csv","xpyriment","Kafkaesque Koffka","3.2.5","yes","[ 2.  0.  2.  0.  0.  0.  2.  2.  2.  0.  0.  2.  0.  2.  2.  2.  2.  0.
  0.  2.  2.  2.  0.  0.  0.  0.  0.  0.  0.  0.  2.  2.  0.  0.  2.  0.
  2.  0.  2.  2.  2.  0.  2.  2.  2.  2.  2.  0.  2.  2.  0.  2.  2.  2.
  2.  0.  2.  0.  2.  0.  0.  0.  2.  0.  0.  0.  0.  2.  2.  0.  2.  2.
  2.  0.  0.  2.  2.  0.  0.  2.  2.  0.  0.  2.  0.  0.  0.  2.  2.  0.
  0.  0.  0.  2.  0.  0.  2.  0.  0.  2.  0.  0.  0.  2.  0.  2.  2.  2.
  0.  0.  0.  2.  0.  0.  0.  0.  0.  0.  2.  0.  0.  2.  2.  0.  0.  0.
  2.  0.  0.  0.  0.  0.  0.  0.  0.  0.  0.  2.  2.  0.  2.  0.  2.  0.
  2.  2.  2.  2.  2.  0.  2.  2.  2.  2.  2.  2.  2.  2.  2.  2.  0.  2.
  2.  2.  2.  0.  0.  0.  0.  2.  0.  0.  2.  0.  2.  0.  2.  2.  2.  2.
  0.  0.  2.  2.  0.  0.  2.  0.  2.  2.  2.  2.  2.  0.  2.  2.  0.  0.
  2.  0.  0.  2.  2.  2.  2.  2.  0.  0.  2.  2.  2.  0.  0.  2.  2.  2.
  2.  0.  0.  2.  2.  0.  2.  2.  2.  2.  2.  0.  2.  0.  0.  0.  2.  2.
  0.  2.  0.  2.  2.  2.  0.  2.  0.  0.  0.  0.  2.  2.  0.  0.  2.  2.
  2.  0.  2.  2.  0.  0.  0.  2.  2.  2.  0.  0.  2.  2.  2.  2.  2.  2.
  2.  2.  2.  2.  2.  2.  2.  2.  0.  0.  2.  0.  2.  0.  2.  0.  2.  0.
  2.  0.  0.  0.  2.  2.  0.  2.  0.  2.  2.  0.  0.  0.  2.  2.  0.  2.
  2.  2.  2.  0.  0.  0.  2.  2.  2.  2.  2.  0.  0.  0.  0.  0.  2.  2.
  2.  2.  0.  2.  2.  2.  2.  0.  2.  0.  0.  0.  0.  2.  0.  0.  0.  0.
  0.  0.  2.  2.  2.  2.  0.  0.  2.  0.  0.  2.  2.  0.  0.  0.  0.  0.
  0.  2.  0.  2.  0.  2.  2.  2.  2.  0.  2.  0.  0.  2.  0.  0.  0.  2.
  2.  2.  2.  0.  2.  0.  2.  0.  2.  2.  0.  0.  0.  2.  2.  2.  2.  0.
  2.  0.  2.  2.]","4 + 3","0","space","NA","NA","space","1365","NA","NA","1365","LinregressResult(slope=0.00039431496446852777, intercept=0.97593984962406011, rvalue=0.045600450809869464, pvalue=0.3630186544915337, stderr=0.00043299270608984365)","2","legacy","0.000394314964469","1024","2","48000","-16","experiment","2.0,0.0,2.0,0.0,0.0,0.0,2.0,2.0,2.0,0.0,0.0,2.0,0.0,2.0,2.0,2.0,2.0,0.0,0.0,2.0,2.0,2.0,0.0,0.0,0.0,0.0,0.0,0.0,0.0,0.0,2.0,2.0,0.0,0.0,2.0,0.0,2.0,0.0,2.0,2.0,2.0,0.0,2.0,2.0,2.0,2.0,2.0,0.0,2.0,2.0,0.0,2.0,2.0,2.0,2.0,0.0,2.0,0.0,2.0,0.0,0.0,0.0,2.0,0.0,0.0,0.0,0.0,2.0,2.0,0.0,2.0,2.0,2.0,0.0,0.0,2.0,2.0,0.0,0.0,2.0,2.0,0.0,0.0,2.0,0.0,0.0,0.0,2.0,2.0,0.0,0.0,0.0,0.0,2.0,0.0,0.0,2.0,0.0,0.0,2.0,0.0,0.0,0.0,2.0,0.0,2.0,2.0,2.0,0.0,0.0,0.0,2.0,0.0,0.0,0.0,0.0,0.0,0.0,2.0,0.0,0.0,2.0,2.0,0.0,0.0,0.0,2.0,0.0,0.0,0.0,0.0,0.0,0.0,0.0,0.0,0.0,0.0,2.0,2.0,0.0,2.0,0.0,2.0,0.0,2.0,2.0,2.0,2.0,2.0,0.0,2.0,2.0,2.0,2.0,2.0,2.0,2.0,2.0,2.0,2.0,0.0,2.0,2.0,2.0,2.0,0.0,0.0,0.0,0.0,2.0,0.0,0.0,2.0,0.0,2.0,0.0,2.0,2.0,2.0,2.0,0.0,0.0,2.0,2.0,0.0,0.0,2.0,0.0,2.0,2.0,2.0,2.0,2.0,0.0,2.0,2.0,0.0,0.0,2.0,0.0,0.0,2.0,2.0,2.0,2.0,2.0,0.0,0.0,2.0,2.0,2.0,0.0,0.0,2.0,2.0,2.0,2.0,0.0,0.0,2.0,2.0,0.0,2.0,2.0,2.0,2.0,2.0,0.0,2.0,0.0,0.0,0.0,2.0,2.0,0.0,2.0,0.0,2.0,2.0,2.0,0.0,2.0,0.0,0.0,0.0,0.0,2.0,2.0,0.0,0.0,2.0,2.0,2.0,0.0,2.0,2.0,0.0,0.0,0.0,2.0,2.0,2.0,0.0,0.0,2.0,2.0,2.0,2.0,2.0,2.0,2.0,2.0,2.0,2.0,2.0,2.0,2.0,2.0,0.0,0.0,2.0,0.0,2.0,0.0,2.0,0.0,2.0,0.0,2.0,0.0,0.0,0.0,2.0,2.0,0.0,2.0,0.0,2.0,2.0,0.0,0.0,0.0,2.0,2.0,0.0,2.0,2.0,2.0,2.0,0.0,0.0,0.0,2.0,2.0,2.0,2.0,2.0,0.0,0.0,0.0,0.0,0.0,2.0,2.0,2.0,2.0,0.0,2.0,2.0,2.0,2.0,0.0,2.0,0.0,0.0,0.0,0.0,2.0,0.0,0.0,0.0,0.0,0.0,0.0,2.0,2.0,2.0,2.0,0.0,0.0,2.0,0.0,0.0,2.0,2.0,0.0,0.0,0.0,0.0,0.0,0.0,2.0,0.0,2.0,0.0,2.0,2.0,2.0,2.0,0.0,2.0,0.0,0.0,2.0,0.0,0.0,0.0,2.0,2.0,2.0,2.0,0.0,2.0,0.0,2.0,0.0,2.0,2.0,0.0,0.0,0.0,2.0,2.0,2.0,2.0,0.0,2.0,0.0,2.0,2.0","0","even","37797","42806","5009","arithmetic","19987","37804","NA","15661","42806","NA","10928","NA","NA","6310","36296","NA","37805","NA","6329","NA","NA","NA","43111","NA","36278","NA","42807","NA","36279","NA","35408","NA","15669","7696","NA","NA","42806","37797","10929","36278","NA","Extended template","0","0","0","yes","1024"
"undefined","undefined","undefined","NA","undefined","black","yes","xpyriment","legacy","legacy","0","uniform","undefined","undefined","0","3","NA","0","3","NA","0","0","0","0","3","NA","3","NA","0","0","NA","NA","3","NA","3","NA","3","NA","3","NA","3","NA","0","0","0","0","3","3","0","3","NA","10/16/18 16:32:09","A template containing a practice and an experimental phase","easy","yes","Experiment.osexp","C:\Users\lpater\Documents\usermodels\usermodels2\usermodels","no","mono","no","18","no","white","no","Ok","yes","768","legacy","3","3","0","C:/Users/lpater/Documents/usermodels/usermodels2/usermodels/subject-0.csv","xpyriment","Kafkaesque Koffka","3.2.5","yes","[ 0.  0.  2.  2.  2.  0.  0.  2.  2.  0.  0.  2.  0.  2.  2.  0.  2.  0.
  0.  2.  0.  2.  0.  0.  0.  0.  0.  2.  0.  0.  2.  0.  0.  0.  0.  2.
  0.  2.  0.  2.  0.  0.  0.  0.  2.  0.  2.  2.  0.  0.  0.  2.  2.  2.
  2.  0.  2.  0.  0.  2.  2.  2.  0.  2.  2.  0.  0.  2.  0.  0.  2.  0.
  0.  0.  0.  2.  2.  0.  0.  0.  2.  0.  0.  2.  2.  2.  0.  0.  0.  2.
  0.  0.  2.  0.  0.  0.  2.  0.  2.  0.  0.  2.  0.  2.  0.  2.  0.  2.
  0.  0.  0.  2.  0.  0.  2.  0.  0.  0.  2.  2.  0.  2.  0.  2.  2.  2.
  2.  2.  2.  2.  2.  0.  2.  0.  0.  2.  0.  2.  2.  2.  2.  0.  2.  0.
  2.  0.  2.  2.  2.  2.  2.  2.  2.  2.  2.  2.  2.  0.  0.  0.  2.  0.
  2.  2.  0.  2.  2.  2.  2.  2.  0.  2.  0.  2.  2.  2.  2.  2.  0.  0.
  0.  2.  2.  0.  2.  2.  2.  0.  2.  0.  2.  2.  0.  2.  0.  2.  2.  2.
  0.  2.  0.  0.  2.  0.  2.  0.  0.  2.  2.  2.  0.  2.  2.  0.  0.  0.
  0.  0.  0.  2.  2.  2.  0.  2.  2.  0.  2.  0.  2.  0.  2.  0.  2.  2.
  2.  0.  2.  0.  0.  0.  2.  2.  0.  0.  2.  0.  2.  0.  0.  0.  0.  2.
  2.  0.  0.  0.  0.  0.  2.  2.  2.  0.  2.  2.  2.  0.  2.  0.  2.  0.
  0.  2.  2.  2.  2.  2.  0.  2.  0.  0.  2.  2.  2.  2.  2.  2.  2.  0.
  2.  0.  2.  2.  0.  0.  0.  2.  2.  2.  2.  0.  2.  2.  2.  0.  0.  0.
  2.  0.  0.  0.  0.  0.  2.  2.  2.  0.  2.  2.  0.  0.  2.  2.  0.  2.
  2.  0.  2.  2.  0.  2.  0.  2.  0.  2.  2.  2.  2.  0.  0.  2.  0.  0.
  0.  2.  0.  2.  0.  0.  0.  2.  2.  2.  0.  0.  0.  0.  2.  0.  0.  2.
  0.  2.  2.  0.  0.  2.  0.  0.  2.  0.  0.  0.  0.  2.  2.  0.  2.  2.
  0.  2.  0.  2.  0.  2.  0.  0.  0.  0.  2.  2.  0.  0.  0.  0.  2.  0.
  2.  0.  0.  0.]","2 + 4","0","space","NA","NA","space","1365","NA","NA","1365","LinregressResult(slope=4.2187763673523176e-05, intercept=0.99654135338345851, rvalue=0.0048714690132049057, pvalue=0.92262708708958685, stderr=0.00043409008957109001)","2","legacy","4.21877636735e-05","1024","2","48000","-16","experiment","0.0,0.0,2.0,2.0,2.0,0.0,0.0,2.0,2.0,0.0,0.0,2.0,0.0,2.0,2.0,0.0,2.0,0.0,0.0,2.0,0.0,2.0,0.0,0.0,0.0,0.0,0.0,2.0,0.0,0.0,2.0,0.0,0.0,0.0,0.0,2.0,0.0,2.0,0.0,2.0,0.0,0.0,0.0,0.0,2.0,0.0,2.0,2.0,0.0,0.0,0.0,2.0,2.0,2.0,2.0,0.0,2.0,0.0,0.0,2.0,2.0,2.0,0.0,2.0,2.0,0.0,0.0,2.0,0.0,0.0,2.0,0.0,0.0,0.0,0.0,2.0,2.0,0.0,0.0,0.0,2.0,0.0,0.0,2.0,2.0,2.0,0.0,0.0,0.0,2.0,0.0,0.0,2.0,0.0,0.0,0.0,2.0,0.0,2.0,0.0,0.0,2.0,0.0,2.0,0.0,2.0,0.0,2.0,0.0,0.0,0.0,2.0,0.0,0.0,2.0,0.0,0.0,0.0,2.0,2.0,0.0,2.0,0.0,2.0,2.0,2.0,2.0,2.0,2.0,2.0,2.0,0.0,2.0,0.0,0.0,2.0,0.0,2.0,2.0,2.0,2.0,0.0,2.0,0.0,2.0,0.0,2.0,2.0,2.0,2.0,2.0,2.0,2.0,2.0,2.0,2.0,2.0,0.0,0.0,0.0,2.0,0.0,2.0,2.0,0.0,2.0,2.0,2.0,2.0,2.0,0.0,2.0,0.0,2.0,2.0,2.0,2.0,2.0,0.0,0.0,0.0,2.0,2.0,0.0,2.0,2.0,2.0,0.0,2.0,0.0,2.0,2.0,0.0,2.0,0.0,2.0,2.0,2.0,0.0,2.0,0.0,0.0,2.0,0.0,2.0,0.0,0.0,2.0,2.0,2.0,0.0,2.0,2.0,0.0,0.0,0.0,0.0,0.0,0.0,2.0,2.0,2.0,0.0,2.0,2.0,0.0,2.0,0.0,2.0,0.0,2.0,0.0,2.0,2.0,2.0,0.0,2.0,0.0,0.0,0.0,2.0,2.0,0.0,0.0,2.0,0.0,2.0,0.0,0.0,0.0,0.0,2.0,2.0,0.0,0.0,0.0,0.0,0.0,2.0,2.0,2.0,0.0,2.0,2.0,2.0,0.0,2.0,0.0,2.0,0.0,0.0,2.0,2.0,2.0,2.0,2.0,0.0,2.0,0.0,0.0,2.0,2.0,2.0,2.0,2.0,2.0,2.0,0.0,2.0,0.0,2.0,2.0,0.0,0.0,0.0,2.0,2.0,2.0,2.0,0.0,2.0,2.0,2.0,0.0,0.0,0.0,2.0,0.0,0.0,0.0,0.0,0.0,2.0,2.0,2.0,0.0,2.0,2.0,0.0,0.0,2.0,2.0,0.0,2.0,2.0,0.0,2.0,2.0,0.0,2.0,0.0,2.0,0.0,2.0,2.0,2.0,2.0,0.0,0.0,2.0,0.0,0.0,0.0,2.0,0.0,2.0,0.0,0.0,0.0,2.0,2.0,2.0,0.0,0.0,0.0,0.0,2.0,0.0,0.0,2.0,0.0,2.0,2.0,0.0,0.0,2.0,0.0,0.0,2.0,0.0,0.0,0.0,0.0,2.0,2.0,0.0,2.0,2.0,0.0,2.0,0.0,2.0,0.0,2.0,0.0,0.0,0.0,0.0,2.0,2.0,0.0,0.0,0.0,0.0,2.0,0.0,2.0,0.0,0.0,0.0","0","even","45519","50529","5010","arithmetic","19987","45527","NA","15661","50529","NA","10928","NA","NA","6310","44019","NA","45528","NA","6329","NA","NA","NA","50834","NA","44000","NA","50530","NA","44001","NA","43123","NA","15669","7696","NA","NA","50529","45519","10929","44000","NA","Extended template","0","0","0","yes","1024"
"undefined","undefined","undefined","NA","undefined","black","yes","xpyriment","legacy","legacy","0","uniform","undefined","undefined","0","4","NA","0","4","NA","0","0","0","0","4","NA","4","NA","0","0","NA","NA","4","NA","4","NA","4","NA","4","NA","4","NA","0","0","0","0","4","4","0","4","NA","10/16/18 16:32:09","A template containing a practice and an experimental phase","easy","yes","Experiment.osexp","C:\Users\lpater\Documents\usermodels\usermodels2\usermodels","no","mono","no","18","no","white","no","Ok","yes","768","legacy","4","4","0","C:/Users/lpater/Documents/usermodels/usermodels2/usermodels/subject-0.csv","xpyriment","Kafkaesque Koffka","3.2.5","yes","[ 2.  0.  2.  0.  0.  0.  0.  2.  2.  2.  2.  0.  0.  2.  2.  2.  2.  2.
  2.  0.  2.  0.  0.  0.  2.  2.  0.  0.  2.  0.  0.  0.  0.  0.  2.  2.
  0.  0.  0.  0.  0.  0.  2.  0.  0.  0.  0.  0.  2.  2.  2.  2.  0.  2.
  0.  2.  0.  2.  0.  0.  2.  0.  2.  2.  0.  2.  2.  0.  0.  0.  0.  2.
  0.  0.  0.  0.  0.  2.  2.  2.  0.  2.  0.  2.  0.  0.  0.  0.  2.  0.
  2.  0.  0.  2.  0.  0.  2.  0.  2.  0.  2.  2.  2.  2.  2.  0.  0.  2.
  2.  0.  0.  0.  0.  2.  2.  0.  2.  2.  0.  2.  0.  0.  2.  0.  2.  0.
  2.  0.  0.  2.  2.  2.  2.  0.  0.  0.  2.  0.  0.  0.  2.  0.  2.  2.
  2.  2.  2.  2.  0.  2.  0.  2.  0.  0.  0.  2.  2.  2.  2.  0.  2.  2.
  0.  0.  0.  2.  2.  0.  0.  2.  0.  2.  2.  0.  2.  2.  2.  2.  2.  0.
  0.  0.  0.  2.  2.  0.  0.  0.  2.  2.  0.  0.  2.  2.  2.  0.  2.  2.
  0.  0.  2.  0.  0.  0.  0.  2.  2.  2.  0.  0.  2.  2.  2.  2.  0.  2.
  2.  0.  0.  2.  2.  2.  0.  0.  2.  0.  0.  0.  0.  2.  0.  0.  0.  2.
  0.  0.  0.  2.  0.  0.  2.  0.  0.  0.  0.  0.  2.  2.  2.  2.  2.  0.
  2.  2.  2.  2.  0.  0.  0.  2.  2.  0.  2.  2.  0.  0.  2.  2.  2.  0.
  0.  2.  0.  2.  0.  0.  2.  2.  0.  2.  0.  0.  2.  0.  2.  2.  2.  2.
  2.  0.  0.  2.  2.  2.  2.  0.  2.  2.  2.  2.  0.  2.  2.  2.  2.  0.
  0.  0.  0.  0.  2.  2.  0.  2.  2.  2.  2.  2.  0.  0.  2.  2.  0.  0.
  0.  0.  0.  2.  2.  2.  0.  0.  0.  2.  0.  0.  2.  2.  0.  2.  0.  0.
  2.  2.  2.  2.  0.  0.  0.  0.  0.  0.  0.  2.  0.  2.  0.  2.  2.  0.
  0.  2.  0.  0.  2.  0.  2.  0.  0.  2.  2.  0.  0.  0.  0.  0.  2.  0.
  2.  0.  0.  2.  0.  0.  2.  0.  0.  2.  0.  2.  2.  0.  2.  2.  2.  2.
  0.  2.  2.  0.]","1 + 8","0","space","NA","NA","space","1365","NA","NA","1365","LinregressResult(slope=0.00022368889805561277, intercept=0.93015037593984962, rvalue=0.025837363822702224, pvalue=0.60640199575889675, stderr=0.0004338201139857481)","2","legacy","0.000223688898056","1024","2","48000","-16","experiment","2.0,0.0,2.0,0.0,0.0,0.0,0.0,2.0,2.0,2.0,2.0,0.0,0.0,2.0,2.0,2.0,2.0,2.0,2.0,0.0,2.0,0.0,0.0,0.0,2.0,2.0,0.0,0.0,2.0,0.0,0.0,0.0,0.0,0.0,2.0,2.0,0.0,0.0,0.0,0.0,0.0,0.0,2.0,0.0,0.0,0.0,0.0,0.0,2.0,2.0,2.0,2.0,0.0,2.0,0.0,2.0,0.0,2.0,0.0,0.0,2.0,0.0,2.0,2.0,0.0,2.0,2.0,0.0,0.0,0.0,0.0,2.0,0.0,0.0,0.0,0.0,0.0,2.0,2.0,2.0,0.0,2.0,0.0,2.0,0.0,0.0,0.0,0.0,2.0,0.0,2.0,0.0,0.0,2.0,0.0,0.0,2.0,0.0,2.0,0.0,2.0,2.0,2.0,2.0,2.0,0.0,0.0,2.0,2.0,0.0,0.0,0.0,0.0,2.0,2.0,0.0,2.0,2.0,0.0,2.0,0.0,0.0,2.0,0.0,2.0,0.0,2.0,0.0,0.0,2.0,2.0,2.0,2.0,0.0,0.0,0.0,2.0,0.0,0.0,0.0,2.0,0.0,2.0,2.0,2.0,2.0,2.0,2.0,0.0,2.0,0.0,2.0,0.0,0.0,0.0,2.0,2.0,2.0,2.0,0.0,2.0,2.0,0.0,0.0,0.0,2.0,2.0,0.0,0.0,2.0,0.0,2.0,2.0,0.0,2.0,2.0,2.0,2.0,2.0,0.0,0.0,0.0,0.0,2.0,2.0,0.0,0.0,0.0,2.0,2.0,0.0,0.0,2.0,2.0,2.0,0.0,2.0,2.0,0.0,0.0,2.0,0.0,0.0,0.0,0.0,2.0,2.0,2.0,0.0,0.0,2.0,2.0,2.0,2.0,0.0,2.0,2.0,0.0,0.0,2.0,2.0,2.0,0.0,0.0,2.0,0.0,0.0,0.0,0.0,2.0,0.0,0.0,0.0,2.0,0.0,0.0,0.0,2.0,0.0,0.0,2.0,0.0,0.0,0.0,0.0,0.0,2.0,2.0,2.0,2.0,2.0,0.0,2.0,2.0,2.0,2.0,0.0,0.0,0.0,2.0,2.0,0.0,2.0,2.0,0.0,0.0,2.0,2.0,2.0,0.0,0.0,2.0,0.0,2.0,0.0,0.0,2.0,2.0,0.0,2.0,0.0,0.0,2.0,0.0,2.0,2.0,2.0,2.0,2.0,0.0,0.0,2.0,2.0,2.0,2.0,0.0,2.0,2.0,2.0,2.0,0.0,2.0,2.0,2.0,2.0,0.0,0.0,0.0,0.0,0.0,2.0,2.0,0.0,2.0,2.0,2.0,2.0,2.0,0.0,0.0,2.0,2.0,0.0,0.0,0.0,0.0,0.0,2.0,2.0,2.0,0.0,0.0,0.0,2.0,0.0,0.0,2.0,2.0,0.0,2.0,0.0,0.0,2.0,2.0,2.0,2.0,0.0,0.0,0.0,0.0,0.0,0.0,0.0,2.0,0.0,2.0,0.0,2.0,2.0,0.0,0.0,2.0,0.0,0.0,2.0,0.0,2.0,0.0,0.0,2.0,2.0,0.0,0.0,0.0,0.0,0.0,2.0,0.0,2.0,0.0,0.0,2.0,0.0,0.0,2.0,0.0,0.0,2.0,0.0,2.0,2.0,0.0,2.0,2.0,2.0,2.0,0.0,2.0,2.0,0.0","0","even","53235","58243","5008","arithmetic","19987","53242","NA","15661","58243","NA","10928","NA","NA","6310","51734","NA","53243","NA","6329","NA","NA","NA","58552","NA","51716","NA","58244","NA","51716","NA","50848","NA","15669","7696","NA","NA","58243","53235","10929","51716","NA","Extended template","0","0","0","yes","1024"
