"acc","accuracy","average_response_time","avg_rt","background","baselinetrace","bidi","canvas_backend","clock_backend","color_backend","compensation","coordinates","correct","correct_instructions","count_arithmetic","count_arithmetic_task","count_blank_screen_1","count_blocksequence","count_calc_slope","count_calc_slope_1","count_collect_pupil_trace","count_end_of_experiment","count_end_of_practice","count_experiment","count_fixation_cross","count_fixation_cross_1","count_get_baseline","count_get_baseline_1","count_getdata","count_getdata_1","count_instructions","count_instructions2","count_letter_task_1","count_new_inline_script","count_new_logger","count_new_logger_1","count_new_pygaze_drift_correct","count_new_pygaze_drift_correct_1","count_new_pygaze_log","count_new_pygaze_log_2","count_new_pygaze_start_recording","count_new_pygaze_start_recording_1","count_new_pygaze_stop_recording","count_new_pygaze_stop_recording_1","count_practice_instructions","count_pygaze_init","count_reset_feedback","count_reversal","count_test","count_test1","count_training","count_trial_sequence","count_trial_sequence_1","datetime","description","difficulty","disable_garbage_collection","experiment_file","experiment_path","font_bold","font_family","font_italic","font_size","font_underline","foreground","form_clicks","form_response","fullscreen","height","keyboard_backend","live_row","live_row_arithmetic","live_row_training","logfile","mouse_backend","new_column_1","opensesame_codename","opensesame_version","practice","pupilsizes","question_no","repeat_cycle","response","response_end_of_experiment","response_end_of_practice","response_instructions","response_time","response_time_end_of_experiment","response_time_end_of_practice","response_time_instructions","result","round_decimals","sampler_backend","slope","sound_buf_size","sound_channels","sound_freq","sound_sample_size","start","str_baseline","str_pupilsizes","subject_nr","subject_parity","t0","t1","t2","tasktype","time_arithmetic","time_arithmetic_task","time_blank_screen_1","time_blocksequence","time_calc_slope","time_calc_slope_1","time_collect_pupil_trace","time_end_of_experiment","time_end_of_practice","time_experiment","time_fixation_cross","time_fixation_cross_1","time_get_baseline","time_get_baseline_1","time_getdata","time_getdata_1","time_instructions","time_instructions2","time_letter_task_1","time_new_inline_script","time_new_logger","time_new_logger_1","time_new_pygaze_drift_correct","time_new_pygaze_drift_correct_1","time_new_pygaze_log","time_new_pygaze_log_2","time_new_pygaze_start_recording","time_new_pygaze_start_recording_1","time_new_pygaze_stop_recording","time_new_pygaze_stop_recording_1","time_practice_instructions","time_pygaze_init","time_reset_feedback","time_reversal","time_test","time_test1","time_training","time_trial_sequence","time_trial_sequence_1","title","total_correct","total_response_time","total_responses","uniform_coordinates","width"
"undefined","undefined","undefined","undefined","black","[ 2771.  2774.  2785.  2785.  2788.  2786.  2793.  2793.  2802.  2802.
  2803.  2803.  2804.  2811.  2813.  2817.  2822.  2823.  2824.  2826.
  2826.  2826.  2826.  2828.  2825.  2820.  2818.  2815.  2812.  2802.
  2803.  2802.  2795.  2789.  2785.  2776.  2777.  2765.  2762.  2759.
  2756.  2756.  2750.  2752.  2748.  2749.  2746.  2743.  2740.  2738.
  2737.  2738.  2736.  2732.  2729.  2730.  2732.  2726.  2727.  2726.
  2722.  2724.  2722.  2718.  2722.  2717.  2710.  2710.  2710.  2708.
  2708.  2705.  2702.  2705.  2702.]","yes","xpyriment","legacy","legacy","0","uniform","undefined","undefined","0","0","NA","0","0","NA","0","0","0","0","0","NA","0","NA","0","NA","0","0","NA","NA","0","NA","0","NA","0","NA","0","NA","0","NA","0","0","0","0","NA","NA","0","0","NA","10/18/18 14:51:50","A template containing a practice and an experimental phase","medium","yes","Experiment.osexp","C:\Users\EEGExp\Desktop","no","mono","no","18","no","white","no","Ok","yes","768","legacy","0","0","0","C:/Users/EEGExp/Desktop/subject-10.csv","xpyriment","","Kafkaesque Koffka","3.2.5","yes","[ 2702.  2700.  2695.  2697.  2700.  2698.  2698.  2696.  2694.  2696.
  2697.  2698.  2697.  2698.  2691.  2695.  2694.  2695.  2694.  2696.
  2692.  2691.  2694.  2690.  2687.  2682.  2682.  2678.  2673.  2670.
  2670.  2667.  2664.  2658.  2656.  2653.  2652.  2649.  2647.  2648.
  2650.  2647.  2646.  2649.  2652.  2653.  2660.  2662.  2664.  2667.
  2676.  2677.  2682.  2683.  2691.  2700.  2706.  2704.  2713.  2716.
  2719.  2720.  2722.  2720.  2724.  2724.  2724.  2728.  2728.  2728.
  2727.  2728.  2727.  2728.  2725.  2724.  2725.  2724.  2723.  2723.
  2719.  2722.  2725.  2724.  2719.  2717.  2724.  2721.  2721.  2723.
  2723.  2720.  2727.  2726.  2728.  2734.  2734.  2741.  2743.  2749.
  2754.  2763.  2768.  2773.  2784.  2792.  2797.  2807.  2813.  2826.
  2828.  2841.  2851.  2856.  2859.  2861.  2866.  2866.  2874.  2872.
  2875.  2875.  2878.  2876.  2874.  2871.  2878.  2870.  2868.  2864.
  2864.  2858.  2855.  2850.  2846.  2839.  2840.  2830.  2827.  2828.
  2822.  2818.  2812.  2811.  2807.  2806.  2798.  2799.  2791.  2793.
  2787.  2788.  2780.  2775.  2770.  2765.  2760.  2753.  2748.  2740.
  2739.  2732.  2732.  2722.  2714.  2713.  2707.  2702.  2701.  2696.
  2688.  2689.  2682.  2674.  2675.  2673.  2668.  2664.  2664.  2659.
  2657.  2653.  2654.  2649.  2651.  2650.  2652.  2650.  2654.  2658.
  2656.  2658.  2663.  2662.  2669.  2670.  2677.  2677.  2681.  2687.
  2690.  2694.  2703.  2703.  2710.  2715.  2717.  2723.  2725.  2730.
  2733.  2741.  2744.  2743.  2751.  2757.  2760.  2760.  2765.  2772.
  2773.  2776.  2774.  2776.  2784.  2783.  2782.  2781.  2780.  2772.
  2775.  2769.  2764.  2763.  2756.  2750.  2744.  2737.  2737.  2727.
  2719.  2715.  2713.  2700.  2693.  2689.  2682.  2678.  2672.  2664.
  2656.  2656.  2652.  2649.  2639.  2637.  2635.  2626.  2637.  2701.
  2713.  2500.  2284.  2248.  2343.  2526.  2621.  2641.  2656.  2619.
  2612.  2624.  2616.  2611.  2611.  2613.  2616.  2611.  2613.  2613.
  2611.  2608.  2614.  2612.  2613.  2613.  2612.  2610.  2607.  2608.
  2598.  2602.  2595.  2593.  2589.  2588.  2578.  2581.  2576.  2576.
  2564.  2569.  2564.  2563.  2559.  2561.  2554.  2559.  2556.  2558.
  2560.  2557.  2556.  2557.  2558.  2555.  2554.  2556.  2553.  2554.
  2557.  2555.  2550.  2553.  2554.  2549.  2552.  2558.  2557.  2553.
  2555.  2557.  2559.  2558.  2558.  2561.  2564.  2562.  2567.  2568.
  2576.  2580.  2579.  2584.  2583.  2590.  2591.  2592.  2600.  2596.
  2599.  2608.  2607.  2612.  2611.  2612.  2617.  2617.  2620.  2621.
  2626.  2632.  2630.  2634.  2641.  2635.  2632.  2634.  2637.  2639.
  2638.  2640.  2641.  2641.  2645.  2642.  2651.  2652.  2653.  2655.
  2663.  2664.  2671.  2679.  2687.  2691.  2700.  2704.  2707.  2725.
  2727.  2738.  2746.  2753.  2769.  2775.  2789.  2799.  2806.  2818.
  2824.  2838.  2850.  2856.  2862.  2877.  2879.  2887.  2897.  2904.
  2913.  2912.  2915.  2919.  2924.  2927.  2928.  2929.  2928.  2930.
  2926.  2928.  2920.  2915.  2914.  2908.  2903.  2897.  2892.  2885.
  2879.  2872.  2872.  2865.  2864.  2859.  2858.  2852.  2849.  2848.
  2841.  2838.  2838.  2837.  2839.  2839.  2840.  2835.  2839.  2833.
  2836.  2837.  2835.  2839.  2838.  2836.  2842.  2842.  2839.  2842.
  2841.  2845.  2847.  2847.  2851.  2851.  2855.  2851.  2859.  2858.
  2865.  2870.  2871.  2876.  2874.  2879.  2884.  2888.  2894.  2900.
  2902.  2912.  2918.  2919.  2921.  2927.  2935.  2942.  2947.  2954.
  2955.  2959.  2964.  2973.  2973.  2981.  2987.  2989.  2988.  2999.]","3x = 12","0","space","NA","NA","space","1232","NA","NA","1232","LinregressResult(slope=0.21010658442633773, intercept=2674.1503006012026, rvalue=0.26299180462794403, pvalue=2.3523974934353349e-09, stderr=0.034539750891863057)","2","legacy","0.210106584426","1024","2","48000","-16","experiment","2771.0,2774.0,2785.0,2785.0,2788.0,2786.0,2793.0,2793.0,2802.0,2802.0,2803.0,2803.0,2804.0,2811.0,2813.0,2817.0,2822.0,2823.0,2824.0,2826.0,2826.0,2826.0,2826.0,2828.0,2825.0,2820.0,2818.0,2815.0,2812.0,2802.0,2803.0,2802.0,2795.0,2789.0,2785.0,2776.0,2777.0,2765.0,2762.0,2759.0,2756.0,2756.0,2750.0,2752.0,2748.0,2749.0,2746.0,2743.0,2740.0,2738.0,2737.0,2738.0,2736.0,2732.0,2729.0,2730.0,2732.0,2726.0,2727.0,2726.0,2722.0,2724.0,2722.0,2718.0,2722.0,2717.0,2710.0,2710.0,2710.0,2708.0,2708.0,2705.0,2702.0,2705.0,2702.0","2702.0,2700.0,2695.0,2697.0,2700.0,2698.0,2698.0,2696.0,2694.0,2696.0,2697.0,2698.0,2697.0,2698.0,2691.0,2695.0,2694.0,2695.0,2694.0,2696.0,2692.0,2691.0,2694.0,2690.0,2687.0,2682.0,2682.0,2678.0,2673.0,2670.0,2670.0,2667.0,2664.0,2658.0,2656.0,2653.0,2652.0,2649.0,2647.0,2648.0,2650.0,2647.0,2646.0,2649.0,2652.0,2653.0,2660.0,2662.0,2664.0,2667.0,2676.0,2677.0,2682.0,2683.0,2691.0,2700.0,2706.0,2704.0,2713.0,2716.0,2719.0,2720.0,2722.0,2720.0,2724.0,2724.0,2724.0,2728.0,2728.0,2728.0,2727.0,2728.0,2727.0,2728.0,2725.0,2724.0,2725.0,2724.0,2723.0,2723.0,2719.0,2722.0,2725.0,2724.0,2719.0,2717.0,2724.0,2721.0,2721.0,2723.0,2723.0,2720.0,2727.0,2726.0,2728.0,2734.0,2734.0,2741.0,2743.0,2749.0,2754.0,2763.0,2768.0,2773.0,2784.0,2792.0,2797.0,2807.0,2813.0,2826.0,2828.0,2841.0,2851.0,2856.0,2859.0,2861.0,2866.0,2866.0,2874.0,2872.0,2875.0,2875.0,2878.0,2876.0,2874.0,2871.0,2878.0,2870.0,2868.0,2864.0,2864.0,2858.0,2855.0,2850.0,2846.0,2839.0,2840.0,2830.0,2827.0,2828.0,2822.0,2818.0,2812.0,2811.0,2807.0,2806.0,2798.0,2799.0,2791.0,2793.0,2787.0,2788.0,2780.0,2775.0,2770.0,2765.0,2760.0,2753.0,2748.0,2740.0,2739.0,2732.0,2732.0,2722.0,2714.0,2713.0,2707.0,2702.0,2701.0,2696.0,2688.0,2689.0,2682.0,2674.0,2675.0,2673.0,2668.0,2664.0,2664.0,2659.0,2657.0,2653.0,2654.0,2649.0,2651.0,2650.0,2652.0,2650.0,2654.0,2658.0,2656.0,2658.0,2663.0,2662.0,2669.0,2670.0,2677.0,2677.0,2681.0,2687.0,2690.0,2694.0,2703.0,2703.0,2710.0,2715.0,2717.0,2723.0,2725.0,2730.0,2733.0,2741.0,2744.0,2743.0,2751.0,2757.0,2760.0,2760.0,2765.0,2772.0,2773.0,2776.0,2774.0,2776.0,2784.0,2783.0,2782.0,2781.0,2780.0,2772.0,2775.0,2769.0,2764.0,2763.0,2756.0,2750.0,2744.0,2737.0,2737.0,2727.0,2719.0,2715.0,2713.0,2700.0,2693.0,2689.0,2682.0,2678.0,2672.0,2664.0,2656.0,2656.0,2652.0,2649.0,2639.0,2637.0,2635.0,2626.0,2637.0,2701.0,2713.0,2500.0,2284.0,2248.0,2343.0,2526.0,2621.0,2641.0,2656.0,2619.0,2612.0,2624.0,2616.0,2611.0,2611.0,2613.0,2616.0,2611.0,2613.0,2613.0,2611.0,2608.0,2614.0,2612.0,2613.0,2613.0,2612.0,2610.0,2607.0,2608.0,2598.0,2602.0,2595.0,2593.0,2589.0,2588.0,2578.0,2581.0,2576.0,2576.0,2564.0,2569.0,2564.0,2563.0,2559.0,2561.0,2554.0,2559.0,2556.0,2558.0,2560.0,2557.0,2556.0,2557.0,2558.0,2555.0,2554.0,2556.0,2553.0,2554.0,2557.0,2555.0,2550.0,2553.0,2554.0,2549.0,2552.0,2558.0,2557.0,2553.0,2555.0,2557.0,2559.0,2558.0,2558.0,2561.0,2564.0,2562.0,2567.0,2568.0,2576.0,2580.0,2579.0,2584.0,2583.0,2590.0,2591.0,2592.0,2600.0,2596.0,2599.0,2608.0,2607.0,2612.0,2611.0,2612.0,2617.0,2617.0,2620.0,2621.0,2626.0,2632.0,2630.0,2634.0,2641.0,2635.0,2632.0,2634.0,2637.0,2639.0,2638.0,2640.0,2641.0,2641.0,2645.0,2642.0,2651.0,2652.0,2653.0,2655.0,2663.0,2664.0,2671.0,2679.0,2687.0,2691.0,2700.0,2704.0,2707.0,2725.0,2727.0,2738.0,2746.0,2753.0,2769.0,2775.0,2789.0,2799.0,2806.0,2818.0,2824.0,2838.0,2850.0,2856.0,2862.0,2877.0,2879.0,2887.0,2897.0,2904.0,2913.0,2912.0,2915.0,2919.0,2924.0,2927.0,2928.0,2929.0,2928.0,2930.0,2926.0,2928.0,2920.0,2915.0,2914.0,2908.0,2903.0,2897.0,2892.0,2885.0,2879.0,2872.0,2872.0,2865.0,2864.0,2859.0,2858.0,2852.0,2849.0,2848.0,2841.0,2838.0,2838.0,2837.0,2839.0,2839.0,2840.0,2835.0,2839.0,2833.0,2836.0,2837.0,2835.0,2839.0,2838.0,2836.0,2842.0,2842.0,2839.0,2842.0,2841.0,2845.0,2847.0,2847.0,2851.0,2851.0,2855.0,2851.0,2859.0,2858.0,2865.0,2870.0,2871.0,2876.0,2874.0,2879.0,2884.0,2888.0,2894.0,2900.0,2902.0,2912.0,2918.0,2919.0,2921.0,2927.0,2935.0,2942.0,2947.0,2954.0,2955.0,2959.0,2964.0,2973.0,2973.0,2981.0,2987.0,2989.0,2988.0,2999.0","10","even","NA","NA","NA","arithmetic","105618","111827","NA","103358","116828","NA","102920","NA","NA","1737","109073","NA","111073","NA","111828","NA","1832","NA","NA","NA","117164","NA","105953","NA","116843","NA","108722","NA","NA","NA","103358","3064","NA","NA","NA","NA","102921","105953","NA","Extended template","0","0","0","yes","1024"
"undefined","undefined","undefined","undefined","black","[ 2426.  2422.  2424.  2426.  2431.  2431.  2432.  2428.  2436.  2437.
  2441.  2440.  2445.  2446.  2449.  2455.  2452.  2452.  2457.  2459.
  2460.  2463.  2466.  2467.  2471.  2470.  2478.  2481.  2483.  2482.
  2483.  2482.  2486.  2486.  2491.  2490.  2486.  2486.  2483.  2478.
  2478.  2476.  2473.  2471.  2463.  2463.  2463.  2457.  2452.  2451.
  2449.  2438.  2439.  2433.  2429.  2428.  2425.  2422.  2425.  2421.
  2421.  2418.  2419.  2426.  2427.  2427.  2430.  2428.  2428.  2432.
  2445.  2440.  2450.  2450.  2456.]","yes","xpyriment","legacy","legacy","0","uniform","undefined","undefined","0","1","NA","0","1","NA","0","0","0","0","1","NA","1","NA","1","NA","0","0","NA","NA","1","NA","1","NA","1","NA","1","NA","1","NA","0","0","0","0","NA","NA","0","1","NA","10/18/18 14:51:50","A template containing a practice and an experimental phase","medium","yes","Experiment.osexp","C:\Users\EEGExp\Desktop","no","mono","no","18","no","white","no","Ok","yes","768","legacy","1","1","0","C:/Users/EEGExp/Desktop/subject-10.csv","xpyriment","","Kafkaesque Koffka","3.2.5","yes","[ 2459.  2465.  2469.  2474.  2481.  2485.  2482.  2489.  2497.  2496.
  2501.  2493.  2498.  2499.  2502.  2502.  2508.  2507.  2504.  2501.
  2504.  2504.  2511.  2507.  2507.  2503.  2497.  2499.  2502.  2506.
  2505.  2502.  2507.  2510.  2508.  2510.  2508.  2516.  2521.  2521.
  2524.  2526.  2532.  2535.  2534.  2544.  2545.  2548.  2551.  2561.
  2563.  2564.  2566.  2569.  2572.  2567.  2568.  2569.  2562.  2562.
  2554.  2546.  2541.  2536.  2528.  2518.  2510.  2505.  2500.  2490.
  2477.  2471.  2463.  2454.  2449.  2444.  2444.  2436.  2430.  2425.
  2426.  2426.  2416.  2422.  2424.  2430.  2427.  2429.  2439.  2444.
  2448.  2454.  2456.  2466.  2473.  2476.  2482.  2497.  2506.  2512.
  2524.  2523.  2533.  2544.  2554.  2564.  2571.  2575.  2584.  2584.
  2597.  2607.  2611.  2614.  2620.  2623.  2624.  2628.  2633.  2638.
  2640.  2644.  2647.  2651.  2647.  2648.  2655.  2655.  2651.  2646.
  2646.  2646.  2644.  2645.  2641.  2638.  2640.  2639.  2642.  2636.
  2639.  2640.  2639.  2636.  2638.  2636.  2639.  2640.  2645.  2644.
  2644.  2648.  2654.  2653.  2654.  2654.  2661.  2668.  2673.  2673.
  2673.  2681.  2681.  2680.  2685.  2686.  2692.  2688.  2692.  2699.
  2696.  2707.  2706.  2708.  2715.  2719.  2720.  2728.  2728.  2733.
  2734.  2744.  2747.  2750.  2754.  2756.  2763.  2765.  2769.  2769.
  2770.  2770.  2772.  2763.  2762.  2758.  2761.  2751.  2742.  2737.
  2733.  2728.  2718.  2706.  2694.  2686.  2676.  2673.  2661.  2651.
  2643.  2633.  2624.  2614.  2607.  2598.  2595.  2594.  2578.  2571.
  2564.  2558.  2554.  2550.  2545.  2543.  2533.  2535.  2521.  2516.
  2519.  2515.  2514.  2509.  2515.  2510.  2510.  2508.  2510.  2512.
  2508.  2506.  2503.  2502.  2506.  2503.  2499.  2497.  2491.  2491.
  2492.  2492.  2484.  2483.  2484.  2481.  2482.  2475.  2478.  2470.
  2468.  2464.  2462.  2458.  2453.  2450.  2441.  2444.  2437.  2436.
  2429.  2427.  2425.  2429.  2420.  2420.  2423.  2423.  2427.  2419.
  2418.  2419.  2420.  2425.  2417.  2422.  2419.  2420.  2418.  2420.
  2423.  2422.  2421.  2421.  2422.  2421.  2425.  2426.  2426.  2426.
  2423.  2430.  2433.  2433.  2437.  2430.  2430.  2436.  2435.  2438.
  2440.  2434.  2434.  2439.  2442.  2437.  2436.  2436.  2443.  2445.
  2439.  2443.  2448.  2450.  2450.  2450.  2452.  2451.  2451.  2447.
  2454.  2451.  2451.  2457.  2457.  2456.  2455.  2457.  2456.  2458.
  2460.  2461.  2462.  2463.  2465.  2466.  2469.  2472.  2474.  2477.
  2474.  2479.  2479.  2469.  2470.  2471.  2468.  2470.  2470.  2464.
  2464.  2466.  2465.  2460.  2452.  2456.  2448.  2437.  2437.  2431.
  2424.  2422.  2421.  2413.  2410.  2411.  2396.  2387.  2389.  2388.
  2384.  2384.  2380.  2379.  2380.  2381.  2387.  2384.  2387.  2386.
  2391.  2392.  2399.  2396.  2396.  2400.  2405.  2408.  2412.  2413.
  2416.  2413.  2416.  2419.  2423.  2430.  2425.  2420.  2422.  2421.
  2419.  2415.  2408.  2398.  2396.  2387.  2381.  2374.  2369.  2359.
  2348.  2343.  2332.  2331.  2316.  2314.  2308.  2299.  2294.  2287.
  2278.  2273.  2262.  2259.  2251.  2250.  2240.  2237.  2226.  2221.
  2214.  2211.  2201.  2194.  2185.  2175.  2170.  2158.  2155.  2138.
  2133.  2126.  2116.  2107.  2107.  2102.  2089.  2079.  2075.  2069.
  2069.  2063.  2054.  2052.  2047.  2043.  2039.  2038.  2035.  2034.
  2030.  2029.  2021.  2028.  2024.  2020.  2019.  2018.  2011.  2009.
  2008.  2005.  2005.  2008.  2009.  2008.  1996.  1997.  1992.  1989.
  1985.  1979.  1978.  1978.  1967.  1971.  1968.  1967.  1963.  1959.]","7x = 56","0","space","NA","NA","space","1232","NA","NA","1232","LinregressResult(slope=-0.90987195948783783, intercept=2683.2509258517034, rvalue=-0.71249197780174145, pvalue=1.1935446829808929e-78, stderr=0.040153636886706687)","2","legacy","-0.909871959488","1024","2","48000","-16","experiment","2426.0,2422.0,2424.0,2426.0,2431.0,2431.0,2432.0,2428.0,2436.0,2437.0,2441.0,2440.0,2445.0,2446.0,2449.0,2455.0,2452.0,2452.0,2457.0,2459.0,2460.0,2463.0,2466.0,2467.0,2471.0,2470.0,2478.0,2481.0,2483.0,2482.0,2483.0,2482.0,2486.0,2486.0,2491.0,2490.0,2486.0,2486.0,2483.0,2478.0,2478.0,2476.0,2473.0,2471.0,2463.0,2463.0,2463.0,2457.0,2452.0,2451.0,2449.0,2438.0,2439.0,2433.0,2429.0,2428.0,2425.0,2422.0,2425.0,2421.0,2421.0,2418.0,2419.0,2426.0,2427.0,2427.0,2430.0,2428.0,2428.0,2432.0,2445.0,2440.0,2450.0,2450.0,2456.0","2459.0,2465.0,2469.0,2474.0,2481.0,2485.0,2482.0,2489.0,2497.0,2496.0,2501.0,2493.0,2498.0,2499.0,2502.0,2502.0,2508.0,2507.0,2504.0,2501.0,2504.0,2504.0,2511.0,2507.0,2507.0,2503.0,2497.0,2499.0,2502.0,2506.0,2505.0,2502.0,2507.0,2510.0,2508.0,2510.0,2508.0,2516.0,2521.0,2521.0,2524.0,2526.0,2532.0,2535.0,2534.0,2544.0,2545.0,2548.0,2551.0,2561.0,2563.0,2564.0,2566.0,2569.0,2572.0,2567.0,2568.0,2569.0,2562.0,2562.0,2554.0,2546.0,2541.0,2536.0,2528.0,2518.0,2510.0,2505.0,2500.0,2490.0,2477.0,2471.0,2463.0,2454.0,2449.0,2444.0,2444.0,2436.0,2430.0,2425.0,2426.0,2426.0,2416.0,2422.0,2424.0,2430.0,2427.0,2429.0,2439.0,2444.0,2448.0,2454.0,2456.0,2466.0,2473.0,2476.0,2482.0,2497.0,2506.0,2512.0,2524.0,2523.0,2533.0,2544.0,2554.0,2564.0,2571.0,2575.0,2584.0,2584.0,2597.0,2607.0,2611.0,2614.0,2620.0,2623.0,2624.0,2628.0,2633.0,2638.0,2640.0,2644.0,2647.0,2651.0,2647.0,2648.0,2655.0,2655.0,2651.0,2646.0,2646.0,2646.0,2644.0,2645.0,2641.0,2638.0,2640.0,2639.0,2642.0,2636.0,2639.0,2640.0,2639.0,2636.0,2638.0,2636.0,2639.0,2640.0,2645.0,2644.0,2644.0,2648.0,2654.0,2653.0,2654.0,2654.0,2661.0,2668.0,2673.0,2673.0,2673.0,2681.0,2681.0,2680.0,2685.0,2686.0,2692.0,2688.0,2692.0,2699.0,2696.0,2707.0,2706.0,2708.0,2715.0,2719.0,2720.0,2728.0,2728.0,2733.0,2734.0,2744.0,2747.0,2750.0,2754.0,2756.0,2763.0,2765.0,2769.0,2769.0,2770.0,2770.0,2772.0,2763.0,2762.0,2758.0,2761.0,2751.0,2742.0,2737.0,2733.0,2728.0,2718.0,2706.0,2694.0,2686.0,2676.0,2673.0,2661.0,2651.0,2643.0,2633.0,2624.0,2614.0,2607.0,2598.0,2595.0,2594.0,2578.0,2571.0,2564.0,2558.0,2554.0,2550.0,2545.0,2543.0,2533.0,2535.0,2521.0,2516.0,2519.0,2515.0,2514.0,2509.0,2515.0,2510.0,2510.0,2508.0,2510.0,2512.0,2508.0,2506.0,2503.0,2502.0,2506.0,2503.0,2499.0,2497.0,2491.0,2491.0,2492.0,2492.0,2484.0,2483.0,2484.0,2481.0,2482.0,2475.0,2478.0,2470.0,2468.0,2464.0,2462.0,2458.0,2453.0,2450.0,2441.0,2444.0,2437.0,2436.0,2429.0,2427.0,2425.0,2429.0,2420.0,2420.0,2423.0,2423.0,2427.0,2419.0,2418.0,2419.0,2420.0,2425.0,2417.0,2422.0,2419.0,2420.0,2418.0,2420.0,2423.0,2422.0,2421.0,2421.0,2422.0,2421.0,2425.0,2426.0,2426.0,2426.0,2423.0,2430.0,2433.0,2433.0,2437.0,2430.0,2430.0,2436.0,2435.0,2438.0,2440.0,2434.0,2434.0,2439.0,2442.0,2437.0,2436.0,2436.0,2443.0,2445.0,2439.0,2443.0,2448.0,2450.0,2450.0,2450.0,2452.0,2451.0,2451.0,2447.0,2454.0,2451.0,2451.0,2457.0,2457.0,2456.0,2455.0,2457.0,2456.0,2458.0,2460.0,2461.0,2462.0,2463.0,2465.0,2466.0,2469.0,2472.0,2474.0,2477.0,2474.0,2479.0,2479.0,2469.0,2470.0,2471.0,2468.0,2470.0,2470.0,2464.0,2464.0,2466.0,2465.0,2460.0,2452.0,2456.0,2448.0,2437.0,2437.0,2431.0,2424.0,2422.0,2421.0,2413.0,2410.0,2411.0,2396.0,2387.0,2389.0,2388.0,2384.0,2384.0,2380.0,2379.0,2380.0,2381.0,2387.0,2384.0,2387.0,2386.0,2391.0,2392.0,2399.0,2396.0,2396.0,2400.0,2405.0,2408.0,2412.0,2413.0,2416.0,2413.0,2416.0,2419.0,2423.0,2430.0,2425.0,2420.0,2422.0,2421.0,2419.0,2415.0,2408.0,2398.0,2396.0,2387.0,2381.0,2374.0,2369.0,2359.0,2348.0,2343.0,2332.0,2331.0,2316.0,2314.0,2308.0,2299.0,2294.0,2287.0,2278.0,2273.0,2262.0,2259.0,2251.0,2250.0,2240.0,2237.0,2226.0,2221.0,2214.0,2211.0,2201.0,2194.0,2185.0,2175.0,2170.0,2158.0,2155.0,2138.0,2133.0,2126.0,2116.0,2107.0,2107.0,2102.0,2089.0,2079.0,2075.0,2069.0,2069.0,2063.0,2054.0,2052.0,2047.0,2043.0,2039.0,2038.0,2035.0,2034.0,2030.0,2029.0,2021.0,2028.0,2024.0,2020.0,2019.0,2018.0,2011.0,2009.0,2008.0,2005.0,2005.0,2008.0,2009.0,2008.0,1996.0,1997.0,1992.0,1989.0,1985.0,1979.0,1978.0,1978.0,1967.0,1971.0,1968.0,1967.0,1963.0,1959.0","10","even","NA","NA","NA","arithmetic","105618","122238","NA","103358","127239","NA","102920","NA","NA","1737","119485","NA","121485","NA","122239","NA","1832","NA","NA","NA","127560","NA","118107","NA","127240","NA","119137","NA","117187","NA","103358","3064","NA","NA","NA","NA","102921","118107","NA","Extended template","0","0","0","yes","1024"
"undefined","undefined","undefined","undefined","black","[ 2113.  2114.  2115.  2119.  2120.  2114.  2116.  2118.  2116.  2116.
  2112.  2113.  2112.  2114.  2114.  2111.  2108.  2106.  2104.  2100.
  2102.  2096.  2095.  2097.  2096.  2094.  2089.  2086.  2083.  2085.
  2088.  2089.  2089.  2088.  2090.  2094.  2096.  2096.  2094.  2094.
  2099.  2103.  2102.  2106.  2115.  2116.  2122.  2120.  2131.  2134.
  2136.  2143.  2144.  2156.  2158.  2163.  2168.  2172.  2169.  2171.
  2169.  2173.  2175.  2172.  2167.  2168.  2168.  2167.  2166.  2161.
  2155.  2157.  2149.  2149.  2147.]","yes","xpyriment","legacy","legacy","0","uniform","undefined","undefined","0","2","NA","0","2","NA","0","0","0","0","2","NA","2","NA","2","NA","0","0","NA","NA","2","NA","2","NA","2","NA","2","NA","2","NA","0","0","0","0","NA","NA","0","2","NA","10/18/18 14:51:50","A template containing a practice and an experimental phase","easy","yes","Experiment.osexp","C:\Users\EEGExp\Desktop","no","mono","no","18","no","white","no","Ok","yes","768","legacy","2","2","0","C:/Users/EEGExp/Desktop/subject-10.csv","xpyriment","","Kafkaesque Koffka","3.2.5","yes","[ 2144.  2143.  2137.  2136.  2139.  2133.  2131.  2127.  2129.  2125.
  2123.  2123.  2122.  2118.  2118.  2116.  2118.  2120.  2120.  2117.
  2115.  2118.  2113.  2115.  2110.  2114.  2112.  2113.  2110.  2108.
  2109.  2106.  2106.  2105.  2103.  2102.  2104.  2104.  2104.  2108.
  2109.  2111.  2113.  2118.  2119.  2127.  2132.  2130.  2132.  2135.
  2130.  2132.  2133.  2129.  2127.  2122.  2123.  2113.  2111.  2107.
  2101.  2097.  2095.  2086.  2074.  2076.  2068.  2062.  2055.  2048.
  2047.  2044.  2038.  2031.  2027.  2024.  2020.  2015.  2018.  2012.
  2012.  2015.  2011.  2009.  2010.  2009.  2008.  2008.  2011.  2012.
  2011.  2015.  2019.  2026.  2026.  2032.  2034.  2032.  2039.  2043.
  2048.  2059.  2060.  2068.  2068.  2077.  2078.  2083.  2086.  2088.
  2095.  2099.  2101.  2103.  2104.  2103.  2107.  2107.  2107.  2108.
  2102.  2107.  2108.  2102.  2103.  2104.  2102.  2097.  2100.  2098.
  2097.  2098.  2100.  2100.  2100.  2098.  2097.  2097.  2094.  2092.
  2093.  2094.  2093.  2091.  2091.  2087.  2088.  2082.  2076.  2074.
  2068.  2061.  2058.  2054.  2051.  2050.  2045.  2042.  2035.  2031.
  2031.  2027.  2028.  2023.  2019.  2017.  2016.  2013.  2014.  2013.
  2009.  2012.  2008.  2007.  2006.  2004.  2005.  2006.  2005.  2010.
  2005.  2006.  2010.  2015.  2008.  2004.  2005.  2005.  2002.  2011.
  1999.  1999.  1994.  1995.  1995.  1993.  1985.  1986.  1979.  1982.
  1981.  1979.  1979.  1975.  1975.  1974.  1974.  1979.  1980.  1979.
  1980.  1976.  1984.  1987.  1985.  1994.  1991.  1991.  1996.  1996.
  2003.  2002.  2009.  2008.  2008.  2009.  2014.  2015.  2018.  2020.
  2020.  2021.  2020.  2020.  2020.  2015.  2012.  2012.  2006.  2002.
  2001.  1998.  2000.  1992.  1991.  1990.  1987.  1988.  1986.  1986.
  1985.  1985.  1984.  1981.  1982.  1980.  1975.  1968.  1971.  1968.
  1962.  1962.  1957.  1953.  1956.  1947.  1945.  1936.  1935.  1922.
  1920.  1921.  1909.  1901.  1893.  1889.  1883.  1879.  1870.  1868.
  1864.  1856.  1853.  1849.  1845.  1841.  1841.  1837.  1836.  1834.
  1832.  1831.  1832.  1833.  1837.  1837.  1834.  1839.  1837.  1838.
  1840.  1847.  1853.  1859.  1859.  1859.  1860.  1862.  1865.  1864.
  1865.  1865.  1864.  1870.  1873.  1879.  1878.  1885.  1889.  1888.
  1890.  1896.  1901.  1909.  1916.  1914.  1922.  1927.  1932.  1939.
  1944.  1948.  1951.  1958.  1961.  1961.  1970.  1981.  1979.  1991.
  1992.  1998.  2002.  2003.  2013.  2017.  2022.  2023.  2029.  2035.
  2038.  2043.  2052.  2057.  2058.  2066.  2072.  2073.  2080.  2084.
  2090.  2093.  2099.  2103.  2106.  2109.  2112.  2117.  2119.  2123.
  2128.  2131.  2132.  2130.  2133.  2134.  2145.  2146.  2151.  2151.
  2151.  2154.  2156.  2154.  2162.  2158.  2160.  2160.  2160.  2162.
  2166.  2171.  2168.  2172.  2169.  2169.  2171.  2169.  2164.  2169.
  2166.  2162.  2164.  2158.  2161.  2160.  2157.  2158.  2157.  2162.
  2163.  2162.  2159.  2155.  2154.  2154.  2152.  2153.  2149.  2152.
  2159.  2153.  2153.  2158.  2154.  2151.  2149.  2157.  2160.  2157.
  2159.  2160.  2154.  2157.  2161.  2159.  2156.  2166.  2159.  2158.
  2162.  2163.  2162.  2167.  2170.  2168.  2169.  2167.  2171.  2172.
  2172.  2174.  2179.  2174.  2175.  2179.  2171.  2176.  2172.  2168.
  2178.  2171.  2169.  2170.  2164.  2168.  2160.  2160.  2168.  2168.
  2163.  2165.  2164.  2162.  2162.  2163.  2162.  2165.  2153.  2154.
  2155.  2151.  2155.  2151.  2152.  2148.  2144.  2137.  2126.  2126.
  2118.  2116.  2109.  2110.  2105.  2097.  2088.  2082.  2081.  2074.]","3 + 2","0","space","NA","NA","space","1232","NA","NA","1232","LinregressResult(slope=0.096510098040392192, intercept=2029.3902204408816, rvalue=0.14826719089540463, pvalue=0.00088274380577080345, stderr=0.028846039404218954)","2","legacy","0.0965100980404","1024","2","48000","-16","experiment","2113.0,2114.0,2115.0,2119.0,2120.0,2114.0,2116.0,2118.0,2116.0,2116.0,2112.0,2113.0,2112.0,2114.0,2114.0,2111.0,2108.0,2106.0,2104.0,2100.0,2102.0,2096.0,2095.0,2097.0,2096.0,2094.0,2089.0,2086.0,2083.0,2085.0,2088.0,2089.0,2089.0,2088.0,2090.0,2094.0,2096.0,2096.0,2094.0,2094.0,2099.0,2103.0,2102.0,2106.0,2115.0,2116.0,2122.0,2120.0,2131.0,2134.0,2136.0,2143.0,2144.0,2156.0,2158.0,2163.0,2168.0,2172.0,2169.0,2171.0,2169.0,2173.0,2175.0,2172.0,2167.0,2168.0,2168.0,2167.0,2166.0,2161.0,2155.0,2157.0,2149.0,2149.0,2147.0","2144.0,2143.0,2137.0,2136.0,2139.0,2133.0,2131.0,2127.0,2129.0,2125.0,2123.0,2123.0,2122.0,2118.0,2118.0,2116.0,2118.0,2120.0,2120.0,2117.0,2115.0,2118.0,2113.0,2115.0,2110.0,2114.0,2112.0,2113.0,2110.0,2108.0,2109.0,2106.0,2106.0,2105.0,2103.0,2102.0,2104.0,2104.0,2104.0,2108.0,2109.0,2111.0,2113.0,2118.0,2119.0,2127.0,2132.0,2130.0,2132.0,2135.0,2130.0,2132.0,2133.0,2129.0,2127.0,2122.0,2123.0,2113.0,2111.0,2107.0,2101.0,2097.0,2095.0,2086.0,2074.0,2076.0,2068.0,2062.0,2055.0,2048.0,2047.0,2044.0,2038.0,2031.0,2027.0,2024.0,2020.0,2015.0,2018.0,2012.0,2012.0,2015.0,2011.0,2009.0,2010.0,2009.0,2008.0,2008.0,2011.0,2012.0,2011.0,2015.0,2019.0,2026.0,2026.0,2032.0,2034.0,2032.0,2039.0,2043.0,2048.0,2059.0,2060.0,2068.0,2068.0,2077.0,2078.0,2083.0,2086.0,2088.0,2095.0,2099.0,2101.0,2103.0,2104.0,2103.0,2107.0,2107.0,2107.0,2108.0,2102.0,2107.0,2108.0,2102.0,2103.0,2104.0,2102.0,2097.0,2100.0,2098.0,2097.0,2098.0,2100.0,2100.0,2100.0,2098.0,2097.0,2097.0,2094.0,2092.0,2093.0,2094.0,2093.0,2091.0,2091.0,2087.0,2088.0,2082.0,2076.0,2074.0,2068.0,2061.0,2058.0,2054.0,2051.0,2050.0,2045.0,2042.0,2035.0,2031.0,2031.0,2027.0,2028.0,2023.0,2019.0,2017.0,2016.0,2013.0,2014.0,2013.0,2009.0,2012.0,2008.0,2007.0,2006.0,2004.0,2005.0,2006.0,2005.0,2010.0,2005.0,2006.0,2010.0,2015.0,2008.0,2004.0,2005.0,2005.0,2002.0,2011.0,1999.0,1999.0,1994.0,1995.0,1995.0,1993.0,1985.0,1986.0,1979.0,1982.0,1981.0,1979.0,1979.0,1975.0,1975.0,1974.0,1974.0,1979.0,1980.0,1979.0,1980.0,1976.0,1984.0,1987.0,1985.0,1994.0,1991.0,1991.0,1996.0,1996.0,2003.0,2002.0,2009.0,2008.0,2008.0,2009.0,2014.0,2015.0,2018.0,2020.0,2020.0,2021.0,2020.0,2020.0,2020.0,2015.0,2012.0,2012.0,2006.0,2002.0,2001.0,1998.0,2000.0,1992.0,1991.0,1990.0,1987.0,1988.0,1986.0,1986.0,1985.0,1985.0,1984.0,1981.0,1982.0,1980.0,1975.0,1968.0,1971.0,1968.0,1962.0,1962.0,1957.0,1953.0,1956.0,1947.0,1945.0,1936.0,1935.0,1922.0,1920.0,1921.0,1909.0,1901.0,1893.0,1889.0,1883.0,1879.0,1870.0,1868.0,1864.0,1856.0,1853.0,1849.0,1845.0,1841.0,1841.0,1837.0,1836.0,1834.0,1832.0,1831.0,1832.0,1833.0,1837.0,1837.0,1834.0,1839.0,1837.0,1838.0,1840.0,1847.0,1853.0,1859.0,1859.0,1859.0,1860.0,1862.0,1865.0,1864.0,1865.0,1865.0,1864.0,1870.0,1873.0,1879.0,1878.0,1885.0,1889.0,1888.0,1890.0,1896.0,1901.0,1909.0,1916.0,1914.0,1922.0,1927.0,1932.0,1939.0,1944.0,1948.0,1951.0,1958.0,1961.0,1961.0,1970.0,1981.0,1979.0,1991.0,1992.0,1998.0,2002.0,2003.0,2013.0,2017.0,2022.0,2023.0,2029.0,2035.0,2038.0,2043.0,2052.0,2057.0,2058.0,2066.0,2072.0,2073.0,2080.0,2084.0,2090.0,2093.0,2099.0,2103.0,2106.0,2109.0,2112.0,2117.0,2119.0,2123.0,2128.0,2131.0,2132.0,2130.0,2133.0,2134.0,2145.0,2146.0,2151.0,2151.0,2151.0,2154.0,2156.0,2154.0,2162.0,2158.0,2160.0,2160.0,2160.0,2162.0,2166.0,2171.0,2168.0,2172.0,2169.0,2169.0,2171.0,2169.0,2164.0,2169.0,2166.0,2162.0,2164.0,2158.0,2161.0,2160.0,2157.0,2158.0,2157.0,2162.0,2163.0,2162.0,2159.0,2155.0,2154.0,2154.0,2152.0,2153.0,2149.0,2152.0,2159.0,2153.0,2153.0,2158.0,2154.0,2151.0,2149.0,2157.0,2160.0,2157.0,2159.0,2160.0,2154.0,2157.0,2161.0,2159.0,2156.0,2166.0,2159.0,2158.0,2162.0,2163.0,2162.0,2167.0,2170.0,2168.0,2169.0,2167.0,2171.0,2172.0,2172.0,2174.0,2179.0,2174.0,2175.0,2179.0,2171.0,2176.0,2172.0,2168.0,2178.0,2171.0,2169.0,2170.0,2164.0,2168.0,2160.0,2160.0,2168.0,2168.0,2163.0,2165.0,2164.0,2162.0,2162.0,2163.0,2162.0,2165.0,2153.0,2154.0,2155.0,2151.0,2155.0,2151.0,2152.0,2148.0,2144.0,2137.0,2126.0,2126.0,2118.0,2116.0,2109.0,2110.0,2105.0,2097.0,2088.0,2082.0,2081.0,2074.0","10","even","NA","NA","NA","arithmetic","105618","133980","NA","103358","138981","NA","102920","NA","NA","1737","131226","NA","133226","NA","133981","NA","1832","NA","NA","NA","139302","NA","128464","NA","138982","NA","130874","NA","127579","NA","103358","3064","NA","NA","NA","NA","102921","128464","NA","Extended template","0","0","0","yes","1024"
"undefined","undefined","undefined","undefined","black","[ 1904.  1906.  1906.  1908.  1910.  1916.  1920.  1922.  1921.  1925.
  1929.  1935.  1940.  1940.  1946.  1948.  1953.  1956.  1966.  1966.
  1975.  1980.  1983.  1989.  1996.  1999.  2003.  2009.  2013.  2019.
  2022.  2026.  2029.  2035.  2039.  2039.  2044.  2046.  2051.  2052.
  2056.  2057.  2060.  2054.  2057.  2055.  2055.  2053.  2054.  2052.
  2047.  2045.  2050.  2043.  2041.  2035.  2030.  2028.  2020.  2018.
  2010.  2010.  2010.  2004.  1999.  1999.  1996.  1991.  1991.  1991.
  1990.  1991.  1987.  1993.  1992.]","yes","xpyriment","legacy","legacy","0","uniform","undefined","undefined","0","3","NA","0","3","NA","0","0","0","0","3","NA","3","NA","3","NA","0","0","NA","NA","3","NA","3","NA","3","NA","3","NA","3","NA","0","0","0","0","NA","NA","0","3","NA","10/18/18 14:51:50","A template containing a practice and an experimental phase","medium","yes","Experiment.osexp","C:\Users\EEGExp\Desktop","no","mono","no","18","no","white","no","Ok","yes","768","legacy","3","3","0","C:/Users/EEGExp/Desktop/subject-10.csv","xpyriment","","Kafkaesque Koffka","3.2.5","yes","[ 1992.  1994.  1998.  2007.  2010.  2015.  2017.  2024.  2027.  2036.
  2048.  2050.  2061.  2067.  2073.  2085.  2094.  2099.  2108.  2121.
  2131.  2140.  2151.  2167.  2173.  2182.  2194.  2201.  2208.  2219.
  2228.  2237.  2242.  2247.  2250.  2255.  2255.  2261.  2267.  2268.
  2272.  2267.  2268.  2268.  2265.  2261.  2258.  2257.  2254.  2256.
  2256.  2253.  2254.  2249.  2250.  2245.  2248.  2242.  2237.  2237.
  2226.  2228.  2227.  2226.  2222.  2223.  2219.  2217.  2216.  2212.
  2215.  2214.  2218.  2219.  2219.  2221.  2228.  2231.  2230.  2231.
  2231.  2235.  2237.  2243.  2253.  2257.  2260.  2265.  2266.  2271.
  2281.  2287.  2287.  2296.  2303.  2313.  2316.  2323.  2332.  2338.
  2339.  2344.  2349.  2354.  2360.  2362.  2363.  2363.  2363.  2369.
  2363.  2361.  2362.  2360.  2360.  2359.  2356.  2357.  2352.  2352.
  2349.  2349.  2347.  2347.  2343.  2342.  2345.  2336.  2337.  2340.
  2337.  2332.  2331.  2331.  2327.  2335.  2334.  2333.  2331.  2330.
  2331.  2330.  2327.  2323.  2326.  2322.  2325.  2321.  2315.  2313.
  2313.  2315.  2316.  2312.  2312.  2310.  2311.  2313.  2313.  2315.
  2310.  2311.  2311.  2309.  2308.  2311.  2309.  2311.  2312.  2307.
  2305.  2308.  2309.  2306.  2305.  2309.  2309.  2309.  2310.  2316.
  2319.  2320.  2323.  2325.  2329.  2333.  2338.  2345.  2345.  2343.
  2343.  2349.  2347.  2349.  2348.  2353.  2352.  2354.  2357.  2365.
  2358.  2361.  2365.  2364.  2366.  2370.  2367.  2366.  2371.  2371.
  2371.  2372.  2375.  2374.  2372.  2370.  2368.  2369.  2363.  2362.
  2360.  2362.  2363.  2359.  2357.  2354.  2346.  2344.  2342.  2340.
  2337.  2330.  2331.  2332.  2329.  2323.  2328.  2324.  2320.  2315.
  2316.  2310.  2304.  2301.  2299.  2296.  2289.  2284.  2279.  2269.
  2262.  2252.  2248.  2247.  2237.  2237.  2229.  2223.  2216.  2209.
  2202.  2194.  2188.  2191.  2185.  2178.  2172.  2170.  2166.  2167.
  2159.  2157.  2158.  2150.  2151.  2150.  2151.  2146.  2145.  2147.
  2145.  2148.  2149.  2145.  2141.  2144.  2146.  2143.  2145.  2144.
  2146.  2156.  2155.  2160.  2160.  2169.  2171.  2179.  2182.  2190.
  2198.  2203.  2216.  2221.  2233.  2236.  2243.  2250.  2261.  2268.
  2276.  2283.  2294.  2295.  2302.  2311.  2318.  2321.  2324.  2328.
  2332.  2337.  2341.  2340.  2344.  2348.  2345.  2344.  2345.  2344.
  2341.  2341.  2341.  2345.  2344.  2342.  2343.  2348.  2346.  2350.
  2353.  2351.  2354.  2358.  2356.  2356.  2358.  2356.  2358.  2359.
  2366.  2362.  2364.  2369.  2361.  2361.  2360.  2361.  2350.  2352.
  2343.  2337.  2334.  2331.  2325.  2315.  2310.  2305.  2297.  2292.
  2280.  2277.  2270.  2262.  2261.  2261.  2255.  2251.  2247.  2246.
  2245.  2244.  2244.  2243.  2251.  2247.  2250.  2253.  2260.  2258.
  2264.  2272.  2272.  2274.  2278.  2283.  2284.  2291.  2292.  2293.
  2299.  2303.  2311.  2313.  2317.  2317.  2322.  2327.  2324.  2324.
  2327.  2333.  2336.  2337.  2337.  2342.  2343.  2344.  2355.  2357.
  2357.  2360.  2363.  2366.  2373.  2377.  2381.  2383.  2389.  2389.
  2394.  2398.  2402.  2407.  2414.  2415.  2420.  2425.  2429.  2430.
  2441.  2439.  2442.  2444.  2445.  2456.  2463.  2468.  2467.  2472.
  2474.  2479.  2481.  2479.  2488.  2491.  2495.  2495.  2503.  2499.
  2500.  2496.  2495.  2491.  2487.  2483.  2475.  2475.  2473.  2470.
  2461.  2459.  2452.  2449.  2443.  2440.  2430.  2424.  2423.  2420.
  2411.  2403.  2396.  2389.  2389.  2383.  2376.  2371.  2368.  2365.
  2364.  2362.  2353.  2349.  2349.  2343.  2343.  2342.  2342.  2343.]","3x = 15","0","space","NA","NA","space","1232","NA","NA","1232","LinregressResult(slope=0.35679574718298873, intercept=2211.5806653306613, rvalue=0.54590384503591538, pvalue=3.5498811578665569e-40, stderr=0.024538838113357202)","2","legacy","0.356795747183","1024","2","48000","-16","experiment","1904.0,1906.0,1906.0,1908.0,1910.0,1916.0,1920.0,1922.0,1921.0,1925.0,1929.0,1935.0,1940.0,1940.0,1946.0,1948.0,1953.0,1956.0,1966.0,1966.0,1975.0,1980.0,1983.0,1989.0,1996.0,1999.0,2003.0,2009.0,2013.0,2019.0,2022.0,2026.0,2029.0,2035.0,2039.0,2039.0,2044.0,2046.0,2051.0,2052.0,2056.0,2057.0,2060.0,2054.0,2057.0,2055.0,2055.0,2053.0,2054.0,2052.0,2047.0,2045.0,2050.0,2043.0,2041.0,2035.0,2030.0,2028.0,2020.0,2018.0,2010.0,2010.0,2010.0,2004.0,1999.0,1999.0,1996.0,1991.0,1991.0,1991.0,1990.0,1991.0,1987.0,1993.0,1992.0","1992.0,1994.0,1998.0,2007.0,2010.0,2015.0,2017.0,2024.0,2027.0,2036.0,2048.0,2050.0,2061.0,2067.0,2073.0,2085.0,2094.0,2099.0,2108.0,2121.0,2131.0,2140.0,2151.0,2167.0,2173.0,2182.0,2194.0,2201.0,2208.0,2219.0,2228.0,2237.0,2242.0,2247.0,2250.0,2255.0,2255.0,2261.0,2267.0,2268.0,2272.0,2267.0,2268.0,2268.0,2265.0,2261.0,2258.0,2257.0,2254.0,2256.0,2256.0,2253.0,2254.0,2249.0,2250.0,2245.0,2248.0,2242.0,2237.0,2237.0,2226.0,2228.0,2227.0,2226.0,2222.0,2223.0,2219.0,2217.0,2216.0,2212.0,2215.0,2214.0,2218.0,2219.0,2219.0,2221.0,2228.0,2231.0,2230.0,2231.0,2231.0,2235.0,2237.0,2243.0,2253.0,2257.0,2260.0,2265.0,2266.0,2271.0,2281.0,2287.0,2287.0,2296.0,2303.0,2313.0,2316.0,2323.0,2332.0,2338.0,2339.0,2344.0,2349.0,2354.0,2360.0,2362.0,2363.0,2363.0,2363.0,2369.0,2363.0,2361.0,2362.0,2360.0,2360.0,2359.0,2356.0,2357.0,2352.0,2352.0,2349.0,2349.0,2347.0,2347.0,2343.0,2342.0,2345.0,2336.0,2337.0,2340.0,2337.0,2332.0,2331.0,2331.0,2327.0,2335.0,2334.0,2333.0,2331.0,2330.0,2331.0,2330.0,2327.0,2323.0,2326.0,2322.0,2325.0,2321.0,2315.0,2313.0,2313.0,2315.0,2316.0,2312.0,2312.0,2310.0,2311.0,2313.0,2313.0,2315.0,2310.0,2311.0,2311.0,2309.0,2308.0,2311.0,2309.0,2311.0,2312.0,2307.0,2305.0,2308.0,2309.0,2306.0,2305.0,2309.0,2309.0,2309.0,2310.0,2316.0,2319.0,2320.0,2323.0,2325.0,2329.0,2333.0,2338.0,2345.0,2345.0,2343.0,2343.0,2349.0,2347.0,2349.0,2348.0,2353.0,2352.0,2354.0,2357.0,2365.0,2358.0,2361.0,2365.0,2364.0,2366.0,2370.0,2367.0,2366.0,2371.0,2371.0,2371.0,2372.0,2375.0,2374.0,2372.0,2370.0,2368.0,2369.0,2363.0,2362.0,2360.0,2362.0,2363.0,2359.0,2357.0,2354.0,2346.0,2344.0,2342.0,2340.0,2337.0,2330.0,2331.0,2332.0,2329.0,2323.0,2328.0,2324.0,2320.0,2315.0,2316.0,2310.0,2304.0,2301.0,2299.0,2296.0,2289.0,2284.0,2279.0,2269.0,2262.0,2252.0,2248.0,2247.0,2237.0,2237.0,2229.0,2223.0,2216.0,2209.0,2202.0,2194.0,2188.0,2191.0,2185.0,2178.0,2172.0,2170.0,2166.0,2167.0,2159.0,2157.0,2158.0,2150.0,2151.0,2150.0,2151.0,2146.0,2145.0,2147.0,2145.0,2148.0,2149.0,2145.0,2141.0,2144.0,2146.0,2143.0,2145.0,2144.0,2146.0,2156.0,2155.0,2160.0,2160.0,2169.0,2171.0,2179.0,2182.0,2190.0,2198.0,2203.0,2216.0,2221.0,2233.0,2236.0,2243.0,2250.0,2261.0,2268.0,2276.0,2283.0,2294.0,2295.0,2302.0,2311.0,2318.0,2321.0,2324.0,2328.0,2332.0,2337.0,2341.0,2340.0,2344.0,2348.0,2345.0,2344.0,2345.0,2344.0,2341.0,2341.0,2341.0,2345.0,2344.0,2342.0,2343.0,2348.0,2346.0,2350.0,2353.0,2351.0,2354.0,2358.0,2356.0,2356.0,2358.0,2356.0,2358.0,2359.0,2366.0,2362.0,2364.0,2369.0,2361.0,2361.0,2360.0,2361.0,2350.0,2352.0,2343.0,2337.0,2334.0,2331.0,2325.0,2315.0,2310.0,2305.0,2297.0,2292.0,2280.0,2277.0,2270.0,2262.0,2261.0,2261.0,2255.0,2251.0,2247.0,2246.0,2245.0,2244.0,2244.0,2243.0,2251.0,2247.0,2250.0,2253.0,2260.0,2258.0,2264.0,2272.0,2272.0,2274.0,2278.0,2283.0,2284.0,2291.0,2292.0,2293.0,2299.0,2303.0,2311.0,2313.0,2317.0,2317.0,2322.0,2327.0,2324.0,2324.0,2327.0,2333.0,2336.0,2337.0,2337.0,2342.0,2343.0,2344.0,2355.0,2357.0,2357.0,2360.0,2363.0,2366.0,2373.0,2377.0,2381.0,2383.0,2389.0,2389.0,2394.0,2398.0,2402.0,2407.0,2414.0,2415.0,2420.0,2425.0,2429.0,2430.0,2441.0,2439.0,2442.0,2444.0,2445.0,2456.0,2463.0,2468.0,2467.0,2472.0,2474.0,2479.0,2481.0,2479.0,2488.0,2491.0,2495.0,2495.0,2503.0,2499.0,2500.0,2496.0,2495.0,2491.0,2487.0,2483.0,2475.0,2475.0,2473.0,2470.0,2461.0,2459.0,2452.0,2449.0,2443.0,2440.0,2430.0,2424.0,2423.0,2420.0,2411.0,2403.0,2396.0,2389.0,2389.0,2383.0,2376.0,2371.0,2368.0,2365.0,2364.0,2362.0,2353.0,2349.0,2349.0,2343.0,2343.0,2342.0,2342.0,2343.0","10","even","NA","NA","NA","arithmetic","105618","144948","NA","103358","149949","NA","102920","NA","NA","1737","142194","NA","144194","NA","144949","NA","1832","NA","NA","NA","150270","NA","140214","NA","149950","NA","141843","NA","139322","NA","103358","3064","NA","NA","NA","NA","102921","140214","NA","Extended template","0","0","0","yes","1024"
"undefined","undefined","undefined","undefined","black","[ 2271.  2272.  2270.  2277.  2273.  2274.  2268.  2271.  2266.  2270.
  2266.  2265.  2265.  2264.  2265.  2260.  2257.  2257.  2253.  2254.
  2249.  2246.  2247.  2248.  2247.  2248.  2250.  2251.  2248.  2252.
  2252.  2252.  2251.  2251.  2259.  2265.  2261.  2261.  2265.  2263.
  2261.  2257.  2255.  2253.  2251.  2249.  2247.  2245.  2243.  2240.
  2227.  2227.  2227.  2222.  2219.  2213.  2208.  2206.  2205.  2197.
  2197.  2197.  2196.  2190.  2195.  2187.  2181.  2182.  2174.  2170.
  2168.  2172.  2170.  2163.  2161.]","yes","xpyriment","legacy","legacy","0","uniform","undefined","undefined","0","4","NA","0","4","NA","0","0","0","0","4","NA","4","NA","4","NA","0","0","NA","NA","4","NA","4","NA","4","NA","4","NA","4","NA","0","0","0","0","NA","NA","0","4","NA","10/18/18 14:51:50","A template containing a practice and an experimental phase","easy","yes","Experiment.osexp","C:\Users\EEGExp\Desktop","no","mono","no","18","no","white","no","Ok","yes","768","legacy","4","4","0","C:/Users/EEGExp/Desktop/subject-10.csv","xpyriment","","Kafkaesque Koffka","3.2.5","yes","[ 2157.  2149.  2150.  2146.  2142.  2136.  2130.  2126.  2123.  2120.
  2113.  2108.  2111.  2109.  2100.  2100.  2098.  2095.  2091.  2093.
  2086.  2083.  2083.  2078.  2078.  2071.  2072.  2073.  2069.  2071.
  2072.  2070.  2069.  2069.  2068.  2065.  2068.  2062.  2064.  2066.
  2067.  2068.  2074.  2069.  2066.  2066.  2071.  2073.  2073.  2074.
  2073.  2076.  2086.  2085.  2089.  2098.  2101.  2102.  2110.  2112.
  2114.  2121.  2123.  2132.  2140.  2143.  2152.  2153.  2166.  2169.
  2170.  2175.  2187.  2192.  2201.  2206.  2209.  2219.  2224.  2222.
  2221.  2231.  2235.  2237.  2237.  2238.  2244.  2251.  2251.  2252.
  2256.  2257.  2262.  2261.  2262.  2266.  2267.  2274.  2276.  2276.
  2279.  2279.  2279.  2285.  2285.  2287.  2286.  2288.  2289.  2294.
  2285.  2289.  2289.  2290.  2281.  2278.  2273.  2275.  2272.  2264.
  2263.  2261.  2257.  2252.  2251.  2243.  2238.  2240.  2230.  2222.
  2214.  2213.  2202.  2201.  2195.  2190.  2180.  2175.  2173.  2171.
  2164.  2159.  2157.  2150.  2142.  2139.  2142.  2135.  2129.  2128.
  2126.  2125.  2120.  2113.  2111.  2113.  2114.  2110.  2108.  2111.
  2110.  2102.  2104.  2103.  2104.  2104.  2096.  2101.  2096.  2091.
  2093.  2092.  2088.  2083.  2083.  2081.  2072.  2067.  2067.  2064.
  2060.  2062.  2053.  2049.  2048.  2044.  2047.  2044.  2044.  2042.
  2044.  2043.  2045.  2042.  2041.  2045.  2047.  2050.  2055.  2058.
  2058.  2057.  2066.  2072.  2077.  2077.  2081.  2087.  2092.  2098.
  2109.  2115.  2128.  2130.  2135.  2141.  2144.  2150.  2157.  2163.
  2166.  2174.  2177.  2182.  2184.  2187.  2194.  2194.  2196.  2195.
  2196.  2193.  2198.  2195.  2191.  2195.  2196.  2197.  2197.  2200.
  2198.  2199.  2202.  2204.  2210.  2213.  2215.  2220.  2219.  2224.
  2231.  2237.  2240.  2246.  2250.  2251.  2257.  2264.  2268.  2276.
  2278.  2282.  2290.  2290.  2294.  2309.  2312.  2319.  2319.  2324.
  2331.  2333.  2336.  2346.  2344.  2348.  2349.  2348.  2352.  2354.
  2355.  2357.  2360.  2360.  2359.  2359.  2357.  2358.  2356.  2351.
  2350.  2344.  2338.  2334.  2332.  2324.  2314.  2307.  2298.  2291.
  2289.  2275.  2272.  2266.  2256.  2248.  2243.  2236.  2230.  2222.
  2219.  2214.  2214.  2209.  2203.  2201.  2195.  2196.  2196.  2191.
  2189.  2185.  2185.  2182.  2180.  2178.  2176.  2176.  2176.  2174.
  2172.  2169.  2175.  2175.  2175.  2174.  2173.  2175.  2177.  2183.
  2179.  2180.  2189.  2191.  2198.  2195.  2201.  2207.  2211.  2218.
  2221.  2230.  2233.  2242.  2248.  2256.  2265.  2270.  2281.  2286.
  2294.  2300.  2306.  2315.  2317.  2328.  2336.  2340.  2346.  2351.
  2361.  2365.  2369.  2371.  2372.  2374.  2381.  2385.  2391.  2393.
  2394.  2402.  2401.  2405.  2408.  2410.  2412.  2415.  2415.  2418.
  2418.  2423.  2420.  2424.  2422.  2424.  2427.  2426.  2431.  2423.
  2429.  2429.  2430.  2427.  2421.  2424.  2419.  2417.  2409.  2407.
  2405.  2392.  2395.  2387.  2383.  2378.  2371.  2368.  2362.  2361.
  2351.  2347.  2345.  2340.  2336.  2331.  2332.  2327.  2328.  2322.
  2322.  2320.  2321.  2312.  2313.  2312.  2309.  2309.  2315.  2311.
  2313.  2308.  2309.  2308.  2306.  2303.  2302.  2301.  2301.  2299.
  2300.  2298.  2294.  2294.  2294.  2298.  2296.  2291.  2293.  2292.
  2297.  2293.  2292.  2293.  2293.  2298.  2299.  2297.  2300.  2299.
  2305.  2308.  2311.  2317.  2320.  2326.  2330.  2335.  2333.  2343.
  2348.  2360.  2361.  2364.  2370.  2374.  2372.  2376.  2379.  2378.
  2380.  2380.  2381.  2381.  2383.  2383.  2387.  2387.  2391.  2388.]","7 + 2","0","space","NA","NA","space","1232","NA","NA","1232","LinregressResult(slope=0.5434605738422954, intercept=2094.4911262525052, rvalue=0.71687883846452061, pvalue=4.8767072604403837e-80, stderr=0.023684466172603121)","2","legacy","0.543460573842","1024","2","48000","-16","experiment","2271.0,2272.0,2270.0,2277.0,2273.0,2274.0,2268.0,2271.0,2266.0,2270.0,2266.0,2265.0,2265.0,2264.0,2265.0,2260.0,2257.0,2257.0,2253.0,2254.0,2249.0,2246.0,2247.0,2248.0,2247.0,2248.0,2250.0,2251.0,2248.0,2252.0,2252.0,2252.0,2251.0,2251.0,2259.0,2265.0,2261.0,2261.0,2265.0,2263.0,2261.0,2257.0,2255.0,2253.0,2251.0,2249.0,2247.0,2245.0,2243.0,2240.0,2227.0,2227.0,2227.0,2222.0,2219.0,2213.0,2208.0,2206.0,2205.0,2197.0,2197.0,2197.0,2196.0,2190.0,2195.0,2187.0,2181.0,2182.0,2174.0,2170.0,2168.0,2172.0,2170.0,2163.0,2161.0","2157.0,2149.0,2150.0,2146.0,2142.0,2136.0,2130.0,2126.0,2123.0,2120.0,2113.0,2108.0,2111.0,2109.0,2100.0,2100.0,2098.0,2095.0,2091.0,2093.0,2086.0,2083.0,2083.0,2078.0,2078.0,2071.0,2072.0,2073.0,2069.0,2071.0,2072.0,2070.0,2069.0,2069.0,2068.0,2065.0,2068.0,2062.0,2064.0,2066.0,2067.0,2068.0,2074.0,2069.0,2066.0,2066.0,2071.0,2073.0,2073.0,2074.0,2073.0,2076.0,2086.0,2085.0,2089.0,2098.0,2101.0,2102.0,2110.0,2112.0,2114.0,2121.0,2123.0,2132.0,2140.0,2143.0,2152.0,2153.0,2166.0,2169.0,2170.0,2175.0,2187.0,2192.0,2201.0,2206.0,2209.0,2219.0,2224.0,2222.0,2221.0,2231.0,2235.0,2237.0,2237.0,2238.0,2244.0,2251.0,2251.0,2252.0,2256.0,2257.0,2262.0,2261.0,2262.0,2266.0,2267.0,2274.0,2276.0,2276.0,2279.0,2279.0,2279.0,2285.0,2285.0,2287.0,2286.0,2288.0,2289.0,2294.0,2285.0,2289.0,2289.0,2290.0,2281.0,2278.0,2273.0,2275.0,2272.0,2264.0,2263.0,2261.0,2257.0,2252.0,2251.0,2243.0,2238.0,2240.0,2230.0,2222.0,2214.0,2213.0,2202.0,2201.0,2195.0,2190.0,2180.0,2175.0,2173.0,2171.0,2164.0,2159.0,2157.0,2150.0,2142.0,2139.0,2142.0,2135.0,2129.0,2128.0,2126.0,2125.0,2120.0,2113.0,2111.0,2113.0,2114.0,2110.0,2108.0,2111.0,2110.0,2102.0,2104.0,2103.0,2104.0,2104.0,2096.0,2101.0,2096.0,2091.0,2093.0,2092.0,2088.0,2083.0,2083.0,2081.0,2072.0,2067.0,2067.0,2064.0,2060.0,2062.0,2053.0,2049.0,2048.0,2044.0,2047.0,2044.0,2044.0,2042.0,2044.0,2043.0,2045.0,2042.0,2041.0,2045.0,2047.0,2050.0,2055.0,2058.0,2058.0,2057.0,2066.0,2072.0,2077.0,2077.0,2081.0,2087.0,2092.0,2098.0,2109.0,2115.0,2128.0,2130.0,2135.0,2141.0,2144.0,2150.0,2157.0,2163.0,2166.0,2174.0,2177.0,2182.0,2184.0,2187.0,2194.0,2194.0,2196.0,2195.0,2196.0,2193.0,2198.0,2195.0,2191.0,2195.0,2196.0,2197.0,2197.0,2200.0,2198.0,2199.0,2202.0,2204.0,2210.0,2213.0,2215.0,2220.0,2219.0,2224.0,2231.0,2237.0,2240.0,2246.0,2250.0,2251.0,2257.0,2264.0,2268.0,2276.0,2278.0,2282.0,2290.0,2290.0,2294.0,2309.0,2312.0,2319.0,2319.0,2324.0,2331.0,2333.0,2336.0,2346.0,2344.0,2348.0,2349.0,2348.0,2352.0,2354.0,2355.0,2357.0,2360.0,2360.0,2359.0,2359.0,2357.0,2358.0,2356.0,2351.0,2350.0,2344.0,2338.0,2334.0,2332.0,2324.0,2314.0,2307.0,2298.0,2291.0,2289.0,2275.0,2272.0,2266.0,2256.0,2248.0,2243.0,2236.0,2230.0,2222.0,2219.0,2214.0,2214.0,2209.0,2203.0,2201.0,2195.0,2196.0,2196.0,2191.0,2189.0,2185.0,2185.0,2182.0,2180.0,2178.0,2176.0,2176.0,2176.0,2174.0,2172.0,2169.0,2175.0,2175.0,2175.0,2174.0,2173.0,2175.0,2177.0,2183.0,2179.0,2180.0,2189.0,2191.0,2198.0,2195.0,2201.0,2207.0,2211.0,2218.0,2221.0,2230.0,2233.0,2242.0,2248.0,2256.0,2265.0,2270.0,2281.0,2286.0,2294.0,2300.0,2306.0,2315.0,2317.0,2328.0,2336.0,2340.0,2346.0,2351.0,2361.0,2365.0,2369.0,2371.0,2372.0,2374.0,2381.0,2385.0,2391.0,2393.0,2394.0,2402.0,2401.0,2405.0,2408.0,2410.0,2412.0,2415.0,2415.0,2418.0,2418.0,2423.0,2420.0,2424.0,2422.0,2424.0,2427.0,2426.0,2431.0,2423.0,2429.0,2429.0,2430.0,2427.0,2421.0,2424.0,2419.0,2417.0,2409.0,2407.0,2405.0,2392.0,2395.0,2387.0,2383.0,2378.0,2371.0,2368.0,2362.0,2361.0,2351.0,2347.0,2345.0,2340.0,2336.0,2331.0,2332.0,2327.0,2328.0,2322.0,2322.0,2320.0,2321.0,2312.0,2313.0,2312.0,2309.0,2309.0,2315.0,2311.0,2313.0,2308.0,2309.0,2308.0,2306.0,2303.0,2302.0,2301.0,2301.0,2299.0,2300.0,2298.0,2294.0,2294.0,2294.0,2298.0,2296.0,2291.0,2293.0,2292.0,2297.0,2293.0,2292.0,2293.0,2293.0,2298.0,2299.0,2297.0,2300.0,2299.0,2305.0,2308.0,2311.0,2317.0,2320.0,2326.0,2330.0,2335.0,2333.0,2343.0,2348.0,2360.0,2361.0,2364.0,2370.0,2374.0,2372.0,2376.0,2379.0,2378.0,2380.0,2380.0,2381.0,2381.0,2383.0,2383.0,2387.0,2387.0,2391.0,2388.0","10","even","NA","NA","NA","arithmetic","105618","155736","NA","103358","160737","NA","102920","NA","NA","1737","152982","NA","154982","NA","155737","NA","1832","NA","NA","NA","161058","NA","151178","NA","160738","NA","152630","NA","150290","NA","103358","3064","NA","NA","NA","NA","102921","151178","NA","Extended template","0","0","0","yes","1024"
"undefined","undefined","undefined","undefined","black","[ 2789.  2784.  2783.  2780.  2778.  2773.  2769.  2769.  2767.  2768.
  2764.  2761.  2761.  2764.  2757.  2757.  2756.  2755.  2751.  2753.
  2750.  2751.  2746.  2747.  2746.  2749.  2746.  2742.  2746.  2745.
  2746.  2747.  2747.  2743.  2744.  2752.  2749.  2745.  2745.  2746.
  2745.  2744.  2742.  2745.  2742.  2744.  2741.  2744.  2744.  2747.
  2746.  2746.  2746.  2749.  2750.  2749.  2752.  2753.  2754.  2755.
  2756.  2762.  2763.  2768.  2769.  2771.  2775.  2782.  2781.  2786.
  2787.  2791.  2795.  2798.  2803.]","yes","xpyriment","legacy","legacy","0","uniform","undefined","undefined","0","5","NA","0","5","NA","0","0","0","0","5","NA","5","NA","5","NA","0","0","NA","NA","5","NA","5","NA","5","NA","5","NA","5","NA","0","0","0","0","NA","NA","0","5","NA","10/18/18 14:51:50","A template containing a practice and an experimental phase","hard","yes","Experiment.osexp","C:\Users\EEGExp\Desktop","no","mono","no","18","no","white","no","Ok","yes","768","legacy","5","5","0","C:/Users/EEGExp/Desktop/subject-10.csv","xpyriment","","Kafkaesque Koffka","3.2.5","yes","[ 2804.  2805.  2807.  2815.  2814.  2811.  2810.  2816.  2813.  2817.
  2814.  2814.  2810.  2809.  2805.  2802.  2801.  2798.  2792.  2786.
  2788.  2786.  2784.  2777.  2773.  2771.  2768.  2767.  2760.  2757.
  2758.  2753.  2750.  2746.  2743.  2736.  2736.  2733.  2733.  2732.
  2731.  2729.  2727.  2720.  2722.  2717.  2716.  2712.  2711.  2708.
  2706.  2702.  2701.  2706.  2702.  2703.  2703.  2700.  2700.  2700.
  2702.  2701.  2700.  2705.  2703.  2700.  2702.  2706.  2704.  2702.
  2704.  2705.  2699.  2701.  2701.  2696.  2696.  2693.  2689.  2688.
  2686.  2683.  2684.  2676.  2676.  2676.  2677.  2682.  2681.  2684.
  2683.  2681.  2681.  2683.  2691.  2690.  2690.  2697.  2694.  2699.
  2701.  2699.  2704.  2706.  2705.  2711.  2711.  2713.  2715.  2714.
  2713.  2719.  2720.  2722.  2727.  2720.  2723.  2733.  2729.  2735.
  2734.  2733.  2734.  2737.  2741.  2744.  2745.  2748.  2752.  2754.
  2758.  2765.  2766.  2769.  2774.  2779.  2783.  2783.  2787.  2788.
  2795.  2798.  2803.  2805.  2809.  2807.  2811.  2810.  2816.  2815.
  2814.  2818.  2819.  2819.  2825.  2826.  2828.  2830.  2829.  2834.
  2837.  2836.  2839.  2839.  2842.  2847.  2847.  2849.  2852.  2852.
  2854.  2858.  2862.  2870.  2865.  2868.  2867.  2875.  2875.  2879.
  2881.  2884.  2886.  2885.  2887.  2890.  2892.  2896.  2896.  2896.
  2895.  2895.  2894.  2891.  2893.  2889.  2889.  2881.  2876.  2872.
  2870.  2864.  2863.  2852.  2846.  2838.  2831.  2823.  2819.  2806.
  2796.  2786.  2781.  2773.  2772.  2766.  2757.  2750.  2744.  2744.
  2737.  2735.  2731.  2729.  2727.  2728.  2730.  2731.  2729.  2728.
  2725.  2726.  2728.  2729.  2733.  2738.  2740.  2739.  2747.  2750.
  2749.  2755.  2760.  2764.  2770.  2773.  2779.  2777.  2784.  2790.
  2795.  2798.  2798.  2802.  2804.  2808.  2811.  2813.  2813.  2822.
  2823.  2820.  2823.  2824.  2829.  2827.  2828.  2830.  2831.  2832.
  2835.  2829.  2833.  2826.  2827.  2825.  2821.  2823.  2821.  2816.
  2813.  2816.  2808.  2809.  2806.  2802.  2799.  2800.  2797.  2793.
  2791.  2792.  2789.  2789.  2784.  2783.  2778.  2780.  2780.  2781.
  2777.  2777.  2781.  2781.  2781.  2783.  2783.  2788.  2785.  2788.
  2790.  2799.  2795.  2797.  2803.  2798.  2801.  2799.  2801.  2801.
  2802.  2801.  2801.  2800.  2801.  2798.  2797.  2792.  2790.  2795.
  2791.  2789.  2788.  2789.  2786.  2789.  2788.  2786.  2789.  2790.
  2791.  2789.  2789.  2789.  2789.  2791.  2797.  2793.  2797.  2796.
  2797.  2798.  2798.  2803.  2804.  2803.  2805.  2806.  2805.  2804.
  2806.  2805.  2805.  2806.  2805.  2808.  2807.  2814.  2811.  2812.
  2812.  2816.  2818.  2819.  2816.  2821.  2822.  2823.  2825.  2825.
  2823.  2823.  2825.  2828.  2829.  2829.  2834.  2833.  2830.  2831.
  2830.  2831.  2830.  2824.  2823.  2823.  2823.  2817.  2819.  2824.
  2821.  2819.  2821.  2820.  2821.  2820.  2818.  2820.  2820.  2825.
  2822.  2828.  2827.  2826.  2829.  2832.  2833.  2833.  2836.  2838.
  2839.  2839.  2841.  2843.  2842.  2839.  2842.  2837.  2839.  2846.
  2839.  2843.  2844.  2840.  2837.  2837.  2832.  2831.  2827.  2823.
  2823.  2820.  2812.  2804.  2802.  2802.  2789.  2776.  2771.  2764.
  2755.  2748.  2741.  2727.  2716.  2703.  2696.  2680.  2673.  2664.
  2645.  2644.  2630.  2614.  2609.  2602.  2593.  2582.  2577.  2568.
  2565.  2560.  2556.  2543.  2540.  2533.  2531.  2525.  2521.  2517.
  2513.  2504.  2501.  2492.  2492.  2486.  2483.  2477.  2463.  2457.
  2449.  2451.  2440.  2426.  2420.  2414.  2406.  2399.  2398.  2394.]","7x - 3 = 18","0","space","NA","NA","space","1232","NA","NA","1232","LinregressResult(slope=-0.11436496945987784, intercept=2792.8084248496993, rvalue=-0.17881014015948124, pvalue=5.8011089594555032e-05, stderr=0.028198754325216107)","2","legacy","-0.11436496946","1024","2","48000","-16","experiment","2789.0,2784.0,2783.0,2780.0,2778.0,2773.0,2769.0,2769.0,2767.0,2768.0,2764.0,2761.0,2761.0,2764.0,2757.0,2757.0,2756.0,2755.0,2751.0,2753.0,2750.0,2751.0,2746.0,2747.0,2746.0,2749.0,2746.0,2742.0,2746.0,2745.0,2746.0,2747.0,2747.0,2743.0,2744.0,2752.0,2749.0,2745.0,2745.0,2746.0,2745.0,2744.0,2742.0,2745.0,2742.0,2744.0,2741.0,2744.0,2744.0,2747.0,2746.0,2746.0,2746.0,2749.0,2750.0,2749.0,2752.0,2753.0,2754.0,2755.0,2756.0,2762.0,2763.0,2768.0,2769.0,2771.0,2775.0,2782.0,2781.0,2786.0,2787.0,2791.0,2795.0,2798.0,2803.0","2804.0,2805.0,2807.0,2815.0,2814.0,2811.0,2810.0,2816.0,2813.0,2817.0,2814.0,2814.0,2810.0,2809.0,2805.0,2802.0,2801.0,2798.0,2792.0,2786.0,2788.0,2786.0,2784.0,2777.0,2773.0,2771.0,2768.0,2767.0,2760.0,2757.0,2758.0,2753.0,2750.0,2746.0,2743.0,2736.0,2736.0,2733.0,2733.0,2732.0,2731.0,2729.0,2727.0,2720.0,2722.0,2717.0,2716.0,2712.0,2711.0,2708.0,2706.0,2702.0,2701.0,2706.0,2702.0,2703.0,2703.0,2700.0,2700.0,2700.0,2702.0,2701.0,2700.0,2705.0,2703.0,2700.0,2702.0,2706.0,2704.0,2702.0,2704.0,2705.0,2699.0,2701.0,2701.0,2696.0,2696.0,2693.0,2689.0,2688.0,2686.0,2683.0,2684.0,2676.0,2676.0,2676.0,2677.0,2682.0,2681.0,2684.0,2683.0,2681.0,2681.0,2683.0,2691.0,2690.0,2690.0,2697.0,2694.0,2699.0,2701.0,2699.0,2704.0,2706.0,2705.0,2711.0,2711.0,2713.0,2715.0,2714.0,2713.0,2719.0,2720.0,2722.0,2727.0,2720.0,2723.0,2733.0,2729.0,2735.0,2734.0,2733.0,2734.0,2737.0,2741.0,2744.0,2745.0,2748.0,2752.0,2754.0,2758.0,2765.0,2766.0,2769.0,2774.0,2779.0,2783.0,2783.0,2787.0,2788.0,2795.0,2798.0,2803.0,2805.0,2809.0,2807.0,2811.0,2810.0,2816.0,2815.0,2814.0,2818.0,2819.0,2819.0,2825.0,2826.0,2828.0,2830.0,2829.0,2834.0,2837.0,2836.0,2839.0,2839.0,2842.0,2847.0,2847.0,2849.0,2852.0,2852.0,2854.0,2858.0,2862.0,2870.0,2865.0,2868.0,2867.0,2875.0,2875.0,2879.0,2881.0,2884.0,2886.0,2885.0,2887.0,2890.0,2892.0,2896.0,2896.0,2896.0,2895.0,2895.0,2894.0,2891.0,2893.0,2889.0,2889.0,2881.0,2876.0,2872.0,2870.0,2864.0,2863.0,2852.0,2846.0,2838.0,2831.0,2823.0,2819.0,2806.0,2796.0,2786.0,2781.0,2773.0,2772.0,2766.0,2757.0,2750.0,2744.0,2744.0,2737.0,2735.0,2731.0,2729.0,2727.0,2728.0,2730.0,2731.0,2729.0,2728.0,2725.0,2726.0,2728.0,2729.0,2733.0,2738.0,2740.0,2739.0,2747.0,2750.0,2749.0,2755.0,2760.0,2764.0,2770.0,2773.0,2779.0,2777.0,2784.0,2790.0,2795.0,2798.0,2798.0,2802.0,2804.0,2808.0,2811.0,2813.0,2813.0,2822.0,2823.0,2820.0,2823.0,2824.0,2829.0,2827.0,2828.0,2830.0,2831.0,2832.0,2835.0,2829.0,2833.0,2826.0,2827.0,2825.0,2821.0,2823.0,2821.0,2816.0,2813.0,2816.0,2808.0,2809.0,2806.0,2802.0,2799.0,2800.0,2797.0,2793.0,2791.0,2792.0,2789.0,2789.0,2784.0,2783.0,2778.0,2780.0,2780.0,2781.0,2777.0,2777.0,2781.0,2781.0,2781.0,2783.0,2783.0,2788.0,2785.0,2788.0,2790.0,2799.0,2795.0,2797.0,2803.0,2798.0,2801.0,2799.0,2801.0,2801.0,2802.0,2801.0,2801.0,2800.0,2801.0,2798.0,2797.0,2792.0,2790.0,2795.0,2791.0,2789.0,2788.0,2789.0,2786.0,2789.0,2788.0,2786.0,2789.0,2790.0,2791.0,2789.0,2789.0,2789.0,2789.0,2791.0,2797.0,2793.0,2797.0,2796.0,2797.0,2798.0,2798.0,2803.0,2804.0,2803.0,2805.0,2806.0,2805.0,2804.0,2806.0,2805.0,2805.0,2806.0,2805.0,2808.0,2807.0,2814.0,2811.0,2812.0,2812.0,2816.0,2818.0,2819.0,2816.0,2821.0,2822.0,2823.0,2825.0,2825.0,2823.0,2823.0,2825.0,2828.0,2829.0,2829.0,2834.0,2833.0,2830.0,2831.0,2830.0,2831.0,2830.0,2824.0,2823.0,2823.0,2823.0,2817.0,2819.0,2824.0,2821.0,2819.0,2821.0,2820.0,2821.0,2820.0,2818.0,2820.0,2820.0,2825.0,2822.0,2828.0,2827.0,2826.0,2829.0,2832.0,2833.0,2833.0,2836.0,2838.0,2839.0,2839.0,2841.0,2843.0,2842.0,2839.0,2842.0,2837.0,2839.0,2846.0,2839.0,2843.0,2844.0,2840.0,2837.0,2837.0,2832.0,2831.0,2827.0,2823.0,2823.0,2820.0,2812.0,2804.0,2802.0,2802.0,2789.0,2776.0,2771.0,2764.0,2755.0,2748.0,2741.0,2727.0,2716.0,2703.0,2696.0,2680.0,2673.0,2664.0,2645.0,2644.0,2630.0,2614.0,2609.0,2602.0,2593.0,2582.0,2577.0,2568.0,2565.0,2560.0,2556.0,2543.0,2540.0,2533.0,2531.0,2525.0,2521.0,2517.0,2513.0,2504.0,2501.0,2492.0,2492.0,2486.0,2483.0,2477.0,2463.0,2457.0,2449.0,2451.0,2440.0,2426.0,2420.0,2414.0,2406.0,2399.0,2398.0,2394.0","10","even","NA","NA","NA","arithmetic","105618","166068","NA","103358","171069","NA","102920","NA","NA","1737","163314","NA","165314","NA","166069","NA","1832","NA","NA","NA","171390","NA","161962","NA","171070","NA","162964","NA","161077","NA","103358","3064","NA","NA","NA","NA","102921","161962","NA","Extended template","0","0","0","yes","1024"
"undefined","undefined","undefined","undefined","black","[ 2128.  2131.  2133.  2144.  2152.  2156.  2164.  2171.  2180.  2183.
  2192.  2198.  2206.  2209.  2215.  2223.  2228.  2232.  2237.  2238.
  2243.  2249.  2249.  2258.  2259.  2260.  2265.  2270.  2276.  2283.
  2286.  2285.  2292.  2294.  2297.  2302.  2305.  2304.  2305.  2313.
  2312.  2312.  2311.  2313.  2318.  2315.  2318.  2317.  2318.  2316.
  2309.  2308.  2302.  2295.  2286.  2280.  2269.  2254.  2246.  2231.
  2223.  2204.  2195.  2186.  2181.  2172.  2154.  2152.  2143.  2136.
  2132.  2125.  2127.  2120.  2121.]","yes","xpyriment","legacy","legacy","0","uniform","undefined","undefined","0","6","NA","0","6","NA","0","0","0","0","6","NA","6","NA","6","NA","0","0","NA","NA","6","NA","6","NA","6","NA","6","NA","6","NA","0","0","0","0","NA","NA","0","6","NA","10/18/18 14:51:50","A template containing a practice and an experimental phase","hard","yes","Experiment.osexp","C:\Users\EEGExp\Desktop","no","mono","no","18","no","white","no","Ok","yes","768","legacy","6","6","0","C:/Users/EEGExp/Desktop/subject-10.csv","xpyriment","","Kafkaesque Koffka","3.2.5","yes","[ 2119.  2122.  2125.  2125.  2129.  2130.  2132.  2132.  2143.  2143.
  2148.  2157.  2163.  2171.  2175.  2177.  2189.  2200.  2204.  2212.
  2221.  2231.  2236.  2245.  2256.  2262.  2266.  2279.  2283.  2293.
  2297.  2303.  2312.  2316.  2325.  2331.  2335.  2338.  2347.  2349.
  2355.  2354.  2357.  2362.  2361.  2363.  2367.  2370.  2369.  2370.
  2368.  2371.  2364.  2365.  2362.  2358.  2356.  2353.  2351.  2349.
  2337.  2338.  2338.  2333.  2330.  2325.  2324.  2324.  2320.  2316.
  2313.  2310.  2311.  2305.  2309.  2305.  2303.  2302.  2300.  2306.
  2306.  2300.  2303.  2306.  2307.  2304.  2305.  2308.  2306.  2313.
  2316.  2318.  2324.  2326.  2334.  2337.  2338.  2343.  2347.  2347.
  2349.  2352.  2353.  2361.  2363.  2367.  2369.  2370.  2375.  2386.
  2384.  2388.  2389.  2396.  2396.  2405.  2409.  2413.  2414.  2424.
  2422.  2427.  2431.  2429.  2430.  2432.  2435.  2434.  2440.  2441.
  2445.  2449.  2449.  2453.  2456.  2459.  2454.  2465.  2461.  2468.
  2468.  2473.  2472.  2473.  2474.  2471.  2472.  2473.  2474.  2470.
  2473.  2472.  2469.  2468.  2469.  2463.  2463.  2461.  2462.  2460.
  2458.  2451.  2455.  2454.  2451.  2449.  2448.  2444.  2445.  2440.
  2444.  2443.  2439.  2441.  2439.  2439.  2438.  2441.  2443.  2439.
  2440.  2442.  2446.  2449.  2448.  2451.  2452.  2454.  2458.  2460.
  2458.  2463.  2462.  2460.  2462.  2461.  2460.  2464.  2462.  2462.
  2454.  2450.  2449.  2440.  2430.  2427.  2421.  2410.  2401.  2396.
  2390.  2381.  2375.  2364.  2363.  2353.  2349.  2343.  2339.  2333.
  2331.  2328.  2323.  2319.  2317.  2316.  2314.  2314.  2316.  2312.
  2315.  2316.  2313.  2314.  2315.  2320.  2316.  2315.  2319.  2320.
  2318.  2317.  2316.  2309.  2309.  2306.  2307.  2303.  2299.  2296.
  2293.  2288.  2282.  2277.  2274.  2269.  2263.  2259.  2250.  2251.
  2249.  2240.  2236.  2231.  2228.  2227.  2225.  2220.  2216.  2217.
  2207.  2209.  2207.  2205.  2203.  2206.  2202.  2203.  2202.  2208.
  2211.  2212.  2217.  2216.  2212.  2220.  2226.  2227.  2229.  2233.
  2234.  2236.  2237.  2242.  2244.  2244.  2248.  2243.  2250.  2249.
  2243.  2237.  2238.  2240.  2233.  2230.  2228.  2221.  2217.  2211.
  2208.  2200.  2195.  2199.  2191.  2188.  2183.  2181.  2173.  2169.
  2175.  2172.  2165.  2161.  2165.  2159.  2155.  2153.  2152.  2152.
  2151.  2151.  2145.  2147.  2146.  2143.  2145.  2143.  2138.  2139.
  2136.  2136.  2131.  2125.  2120.  2121.  2118.  2113.  2115.  2110.
  2106.  2100.  2091.  2097.  2091.  2091.  2085.  2083.  2082.  2085.
  2083.  2085.  2085.  2086.  2090.  2091.  2091.  2094.  2101.  2103.
  2106.  2110.  2115.  2120.  2125.  2137.  2136.  2140.  2146.  2153.
  2154.  2158.  2163.  2169.  2171.  2175.  2175.  2175.  2177.  2180.
  2179.  2178.  2177.  2172.  2174.  2166.  2169.  2167.  2169.  2161.
  2165.  2159.  2159.  2157.  2157.  2156.  2155.  2147.  2154.  2150.
  2150.  2152.  2146.  2148.  2148.  2148.  2151.  2151.  2148.  2148.
  2144.  2141.  2141.  2133.  2130.  2129.  2128.  2126.  2117.  2116.
  2116.  2115.  2114.  2112.  2111.  2110.  2109.  2109.  2106.  2110.
  2111.  2110.  2114.  2117.  2123.  2126.  2132.  2137.  2137.  2141.
  2146.  2144.  2152.  2157.  2161.  2165.  2168.  2172.  2175.  2181.
  2190.  2189.  2188.  2191.  2195.  2200.  2203.  2208.  2204.  2207.
  2216.  2214.  2219.  2217.  2223.  2226.  2228.  2228.  2231.  2241.
  2244.  2246.  2244.  2250.  2252.  2255.  2260.  2259.  2257.  2260.
  2260.  2260.  2257.  2258.  2254.  2255.  2253.  2249.  2247.  2246.]","3x - 5 = 10","0","space","NA","NA","space","1232","NA","NA","1232","LinregressResult(slope=-0.48432030528122116, intercept=2390.1262364729459, rvalue=-0.5989383459987967, pvalue=5.343894497124165e-50, stderr=0.029017321148445633)","2","legacy","-0.484320305281","1024","2","48000","-16","experiment","2128.0,2131.0,2133.0,2144.0,2152.0,2156.0,2164.0,2171.0,2180.0,2183.0,2192.0,2198.0,2206.0,2209.0,2215.0,2223.0,2228.0,2232.0,2237.0,2238.0,2243.0,2249.0,2249.0,2258.0,2259.0,2260.0,2265.0,2270.0,2276.0,2283.0,2286.0,2285.0,2292.0,2294.0,2297.0,2302.0,2305.0,2304.0,2305.0,2313.0,2312.0,2312.0,2311.0,2313.0,2318.0,2315.0,2318.0,2317.0,2318.0,2316.0,2309.0,2308.0,2302.0,2295.0,2286.0,2280.0,2269.0,2254.0,2246.0,2231.0,2223.0,2204.0,2195.0,2186.0,2181.0,2172.0,2154.0,2152.0,2143.0,2136.0,2132.0,2125.0,2127.0,2120.0,2121.0","2119.0,2122.0,2125.0,2125.0,2129.0,2130.0,2132.0,2132.0,2143.0,2143.0,2148.0,2157.0,2163.0,2171.0,2175.0,2177.0,2189.0,2200.0,2204.0,2212.0,2221.0,2231.0,2236.0,2245.0,2256.0,2262.0,2266.0,2279.0,2283.0,2293.0,2297.0,2303.0,2312.0,2316.0,2325.0,2331.0,2335.0,2338.0,2347.0,2349.0,2355.0,2354.0,2357.0,2362.0,2361.0,2363.0,2367.0,2370.0,2369.0,2370.0,2368.0,2371.0,2364.0,2365.0,2362.0,2358.0,2356.0,2353.0,2351.0,2349.0,2337.0,2338.0,2338.0,2333.0,2330.0,2325.0,2324.0,2324.0,2320.0,2316.0,2313.0,2310.0,2311.0,2305.0,2309.0,2305.0,2303.0,2302.0,2300.0,2306.0,2306.0,2300.0,2303.0,2306.0,2307.0,2304.0,2305.0,2308.0,2306.0,2313.0,2316.0,2318.0,2324.0,2326.0,2334.0,2337.0,2338.0,2343.0,2347.0,2347.0,2349.0,2352.0,2353.0,2361.0,2363.0,2367.0,2369.0,2370.0,2375.0,2386.0,2384.0,2388.0,2389.0,2396.0,2396.0,2405.0,2409.0,2413.0,2414.0,2424.0,2422.0,2427.0,2431.0,2429.0,2430.0,2432.0,2435.0,2434.0,2440.0,2441.0,2445.0,2449.0,2449.0,2453.0,2456.0,2459.0,2454.0,2465.0,2461.0,2468.0,2468.0,2473.0,2472.0,2473.0,2474.0,2471.0,2472.0,2473.0,2474.0,2470.0,2473.0,2472.0,2469.0,2468.0,2469.0,2463.0,2463.0,2461.0,2462.0,2460.0,2458.0,2451.0,2455.0,2454.0,2451.0,2449.0,2448.0,2444.0,2445.0,2440.0,2444.0,2443.0,2439.0,2441.0,2439.0,2439.0,2438.0,2441.0,2443.0,2439.0,2440.0,2442.0,2446.0,2449.0,2448.0,2451.0,2452.0,2454.0,2458.0,2460.0,2458.0,2463.0,2462.0,2460.0,2462.0,2461.0,2460.0,2464.0,2462.0,2462.0,2454.0,2450.0,2449.0,2440.0,2430.0,2427.0,2421.0,2410.0,2401.0,2396.0,2390.0,2381.0,2375.0,2364.0,2363.0,2353.0,2349.0,2343.0,2339.0,2333.0,2331.0,2328.0,2323.0,2319.0,2317.0,2316.0,2314.0,2314.0,2316.0,2312.0,2315.0,2316.0,2313.0,2314.0,2315.0,2320.0,2316.0,2315.0,2319.0,2320.0,2318.0,2317.0,2316.0,2309.0,2309.0,2306.0,2307.0,2303.0,2299.0,2296.0,2293.0,2288.0,2282.0,2277.0,2274.0,2269.0,2263.0,2259.0,2250.0,2251.0,2249.0,2240.0,2236.0,2231.0,2228.0,2227.0,2225.0,2220.0,2216.0,2217.0,2207.0,2209.0,2207.0,2205.0,2203.0,2206.0,2202.0,2203.0,2202.0,2208.0,2211.0,2212.0,2217.0,2216.0,2212.0,2220.0,2226.0,2227.0,2229.0,2233.0,2234.0,2236.0,2237.0,2242.0,2244.0,2244.0,2248.0,2243.0,2250.0,2249.0,2243.0,2237.0,2238.0,2240.0,2233.0,2230.0,2228.0,2221.0,2217.0,2211.0,2208.0,2200.0,2195.0,2199.0,2191.0,2188.0,2183.0,2181.0,2173.0,2169.0,2175.0,2172.0,2165.0,2161.0,2165.0,2159.0,2155.0,2153.0,2152.0,2152.0,2151.0,2151.0,2145.0,2147.0,2146.0,2143.0,2145.0,2143.0,2138.0,2139.0,2136.0,2136.0,2131.0,2125.0,2120.0,2121.0,2118.0,2113.0,2115.0,2110.0,2106.0,2100.0,2091.0,2097.0,2091.0,2091.0,2085.0,2083.0,2082.0,2085.0,2083.0,2085.0,2085.0,2086.0,2090.0,2091.0,2091.0,2094.0,2101.0,2103.0,2106.0,2110.0,2115.0,2120.0,2125.0,2137.0,2136.0,2140.0,2146.0,2153.0,2154.0,2158.0,2163.0,2169.0,2171.0,2175.0,2175.0,2175.0,2177.0,2180.0,2179.0,2178.0,2177.0,2172.0,2174.0,2166.0,2169.0,2167.0,2169.0,2161.0,2165.0,2159.0,2159.0,2157.0,2157.0,2156.0,2155.0,2147.0,2154.0,2150.0,2150.0,2152.0,2146.0,2148.0,2148.0,2148.0,2151.0,2151.0,2148.0,2148.0,2144.0,2141.0,2141.0,2133.0,2130.0,2129.0,2128.0,2126.0,2117.0,2116.0,2116.0,2115.0,2114.0,2112.0,2111.0,2110.0,2109.0,2109.0,2106.0,2110.0,2111.0,2110.0,2114.0,2117.0,2123.0,2126.0,2132.0,2137.0,2137.0,2141.0,2146.0,2144.0,2152.0,2157.0,2161.0,2165.0,2168.0,2172.0,2175.0,2181.0,2190.0,2189.0,2188.0,2191.0,2195.0,2200.0,2203.0,2208.0,2204.0,2207.0,2216.0,2214.0,2219.0,2217.0,2223.0,2226.0,2228.0,2228.0,2231.0,2241.0,2244.0,2246.0,2244.0,2250.0,2252.0,2255.0,2260.0,2259.0,2257.0,2260.0,2260.0,2260.0,2257.0,2258.0,2254.0,2255.0,2253.0,2249.0,2247.0,2246.0","10","even","NA","NA","NA","arithmetic","105618","177569","NA","103358","182570","NA","102920","NA","NA","1737","174815","NA","176815","NA","177570","NA","1832","NA","NA","NA","182891","NA","172307","NA","182571","NA","174478","NA","171416","NA","103358","3064","NA","NA","NA","NA","102921","172307","NA","Extended template","0","0","0","yes","1024"
"undefined","undefined","undefined","undefined","black","[ 2218.  2219.  2220.  2217.  2224.  2225.  2223.  2228.  2233.  2231.
  2228.  2231.  2236.  2234.  2235.  2234.  2230.  2231.  2232.  2234.
  2233.  2232.  2239.  2246.  2246.  2249.  2250.  2249.  2251.  2255.
  2253.  2253.  2255.  2256.  2251.  2261.  2261.  2261.  2261.  2258.
  2256.  2253.  2253.  2244.  2239.  2235.  2227.  2224.  2213.  2206.
  2203.  2193.  2187.  2177.  2169.  2162.  2153.  2148.  2141.  2134.
  2130.  2127.  2122.  2121.  2120.  2121.  2115.  2114.  2115.  2115.
  2109.  2109.  2108.  2108.  2113.]","yes","xpyriment","legacy","legacy","0","uniform","undefined","undefined","0","7","NA","0","7","NA","0","0","0","0","7","NA","7","NA","7","NA","0","0","NA","NA","7","NA","7","NA","7","NA","7","NA","7","NA","0","0","0","0","NA","NA","0","7","NA","10/18/18 14:51:50","A template containing a practice and an experimental phase","easy","yes","Experiment.osexp","C:\Users\EEGExp\Desktop","no","mono","no","18","no","white","no","Ok","yes","768","legacy","7","7","0","C:/Users/EEGExp/Desktop/subject-10.csv","xpyriment","","Kafkaesque Koffka","3.2.5","yes","[ 2109.  2108.  2110.  2107.  2107.  2108.  2107.  2109.  2110.  2109.
  2109.  2114.  2112.  2112.  2114.  2114.  2115.  2118.  2112.  2120.
  2117.  2120.  2119.  2122.  2119.  2121.  2122.  2118.  2120.  2119.
  2117.  2116.  2119.  2116.  2114.  2118.  2117.  2110.  2111.  2108.
  2109.  2113.  2110.  2110.  2111.  2115.  2117.  2118.  2117.  2119.
  2126.  2119.  2124.  2133.  2134.  2134.  2142.  2142.  2141.  2144.
  2141.  2144.  2141.  2138.  2136.  2133.  2133.  2133.  2128.  2127.
  2117.  2113.  2104.  2105.  2102.  2098.  2087.  2088.  2086.  2079.
  2077.  2067.  2066.  2065.  2059.  2058.  2056.  2058.  2052.  2054.
  2049.  2048.  2049.  2049.  2053.  2054.  2051.  2051.  2049.  2048.
  2050.  2051.  2056.  2056.  2054.  2057.  2054.  2057.  2058.  2058.
  2058.  2058.  2057.  2053.  2056.  2053.  2051.  2052.  2054.  2050.
  2052.  2050.  2050.  2047.  2044.  2044.  2043.  2048.  2045.  2044.
  2041.  2045.  2047.  2051.  2053.  2055.  2055.  2055.  2059.  2057.
  2063.  2066.  2065.  2069.  2069.  2072.  2074.  2077.  2077.  2074.
  2073.  2072.  2078.  2080.  2080.  2084.  2082.  2087.  2088.  2087.
  2091.  2091.  2093.  2095.  2096.  2103.  2100.  2102.  2099.  2105.
  2104.  2110.  2114.  2116.  2117.  2125.  2127.  2131.  2131.  2132.
  2134.  2138.  2137.  2141.  2137.  2142.  2140.  2140.  2141.  2138.
  2135.  2130.  2129.  2129.  2125.  2122.  2121.  2120.  2114.  2109.
  2104.  2096.  2102.  2097.  2097.  2093.  2093.  2090.  2091.  2087.
  2087.  2086.  2090.  2093.  2099.  2098.  2096.  2103.  2105.  2111.
  2113.  2120.  2127.  2139.  2139.  2143.  2150.  2155.  2160.  2170.
  2170.  2178.  2184.  2188.  2195.  2196.  2200.  2205.  2209.  2212.
  2213.  2218.  2221.  2222.  2222.  2223.  2229.  2224.  2226.  2226.
  2232.  2230.  2228.  2230.  2230.  2229.  2227.  2226.  2225.  2227.
  2224.  2222.  2222.  2217.  2216.  2216.  2214.  2213.  2217.  2217.
  2219.  2218.  2220.  2214.  2218.  2214.  2211.  2205.  2208.  2205.
  2198.  2195.  2195.  2186.  2183.  2173.  2162.  2148.  2142.  2135.
  2124.  2104.  2098.  2083.  2076.  2066.  2065.  2050.  2034.  2026.
  2022.  2014.  2010.  1996.  1991.  1989.  1984.  1981.  1972.  1965.
  1957.  1955.  1951.  1947.  1943.  1946.  1942.  1941.  1945.  1947.
  1947.  1949.  1947.  1947.  1954.  1961.  1961.  1965.  1965.  1978.
  1979.  1985.  1991.  1996.  2003.  2005.  2015.  2018.  2024.  2028.
  2037.  2041.  2048.  2053.  2055.  2057.  2058.  2057.  2059.  2059.
  2056.  2056.  2054.  2052.  2056.  2052.  2050.  2046.  2049.  2048.
  2051.  2046.  2049.  2050.  2049.  2051.  2045.  2047.  2050.  2055.
  2050.  2058.  2054.  2060.  2065.  2072.  2071.  2078.  2090.  2093.
  2096.  2100.  2102.  2106.  2116.  2117.  2124.  2131.  2136.  2136.
  2139.  2146.  2146.  2146.  2152.  2151.  2156.  2157.  2159.  2160.
  2159.  2161.  2161.  2163.  2161.  2165.  2163.  2164.  2165.  2165.
  2167.  2172.  2169.  2172.  2174.  2173.  2170.  2176.  2175.  2175.
  2175.  2172.  2171.  2164.  2168.  2164.  2163.  2159.  2159.  2150.
  2150.  2139.  2141.  2138.  2136.  2137.  2135.  2126.  2121.  2114.
  2112.  2111.  2104.  2104.  2095.  2091.  2091.  2079.  2072.  2068.
  2067.  2062.  2053.  2053.  2048.  2050.  2046.  2043.  2042.  2040.
  2041.  2039.  2043.  2045.  2047.  2045.  2047.  2049.  2055.  2055.
  2064.  2063.  2067.  2076.  2075.  2078.  2079.  2087.  2094.  2097.
  2098.  2105.  2106.  2105.  2111.  2107.  2106.  2105.  2111.  2108.
  2112.  2111.  2110.  2107.  2110.  2111.  2111.  2107.  2105.  2100.]","6 + 2","0","space","NA","NA","space","1232","NA","NA","1232","LinregressResult(slope=-0.014978939915759666, intercept=2104.744224448898, rvalue=-0.03460784544899722, pvalue=0.44002594430636655, stderr=0.019383473771630515)","2","legacy","-0.0149789399158","1024","2","48000","-16","experiment","2218.0,2219.0,2220.0,2217.0,2224.0,2225.0,2223.0,2228.0,2233.0,2231.0,2228.0,2231.0,2236.0,2234.0,2235.0,2234.0,2230.0,2231.0,2232.0,2234.0,2233.0,2232.0,2239.0,2246.0,2246.0,2249.0,2250.0,2249.0,2251.0,2255.0,2253.0,2253.0,2255.0,2256.0,2251.0,2261.0,2261.0,2261.0,2261.0,2258.0,2256.0,2253.0,2253.0,2244.0,2239.0,2235.0,2227.0,2224.0,2213.0,2206.0,2203.0,2193.0,2187.0,2177.0,2169.0,2162.0,2153.0,2148.0,2141.0,2134.0,2130.0,2127.0,2122.0,2121.0,2120.0,2121.0,2115.0,2114.0,2115.0,2115.0,2109.0,2109.0,2108.0,2108.0,2113.0","2109.0,2108.0,2110.0,2107.0,2107.0,2108.0,2107.0,2109.0,2110.0,2109.0,2109.0,2114.0,2112.0,2112.0,2114.0,2114.0,2115.0,2118.0,2112.0,2120.0,2117.0,2120.0,2119.0,2122.0,2119.0,2121.0,2122.0,2118.0,2120.0,2119.0,2117.0,2116.0,2119.0,2116.0,2114.0,2118.0,2117.0,2110.0,2111.0,2108.0,2109.0,2113.0,2110.0,2110.0,2111.0,2115.0,2117.0,2118.0,2117.0,2119.0,2126.0,2119.0,2124.0,2133.0,2134.0,2134.0,2142.0,2142.0,2141.0,2144.0,2141.0,2144.0,2141.0,2138.0,2136.0,2133.0,2133.0,2133.0,2128.0,2127.0,2117.0,2113.0,2104.0,2105.0,2102.0,2098.0,2087.0,2088.0,2086.0,2079.0,2077.0,2067.0,2066.0,2065.0,2059.0,2058.0,2056.0,2058.0,2052.0,2054.0,2049.0,2048.0,2049.0,2049.0,2053.0,2054.0,2051.0,2051.0,2049.0,2048.0,2050.0,2051.0,2056.0,2056.0,2054.0,2057.0,2054.0,2057.0,2058.0,2058.0,2058.0,2058.0,2057.0,2053.0,2056.0,2053.0,2051.0,2052.0,2054.0,2050.0,2052.0,2050.0,2050.0,2047.0,2044.0,2044.0,2043.0,2048.0,2045.0,2044.0,2041.0,2045.0,2047.0,2051.0,2053.0,2055.0,2055.0,2055.0,2059.0,2057.0,2063.0,2066.0,2065.0,2069.0,2069.0,2072.0,2074.0,2077.0,2077.0,2074.0,2073.0,2072.0,2078.0,2080.0,2080.0,2084.0,2082.0,2087.0,2088.0,2087.0,2091.0,2091.0,2093.0,2095.0,2096.0,2103.0,2100.0,2102.0,2099.0,2105.0,2104.0,2110.0,2114.0,2116.0,2117.0,2125.0,2127.0,2131.0,2131.0,2132.0,2134.0,2138.0,2137.0,2141.0,2137.0,2142.0,2140.0,2140.0,2141.0,2138.0,2135.0,2130.0,2129.0,2129.0,2125.0,2122.0,2121.0,2120.0,2114.0,2109.0,2104.0,2096.0,2102.0,2097.0,2097.0,2093.0,2093.0,2090.0,2091.0,2087.0,2087.0,2086.0,2090.0,2093.0,2099.0,2098.0,2096.0,2103.0,2105.0,2111.0,2113.0,2120.0,2127.0,2139.0,2139.0,2143.0,2150.0,2155.0,2160.0,2170.0,2170.0,2178.0,2184.0,2188.0,2195.0,2196.0,2200.0,2205.0,2209.0,2212.0,2213.0,2218.0,2221.0,2222.0,2222.0,2223.0,2229.0,2224.0,2226.0,2226.0,2232.0,2230.0,2228.0,2230.0,2230.0,2229.0,2227.0,2226.0,2225.0,2227.0,2224.0,2222.0,2222.0,2217.0,2216.0,2216.0,2214.0,2213.0,2217.0,2217.0,2219.0,2218.0,2220.0,2214.0,2218.0,2214.0,2211.0,2205.0,2208.0,2205.0,2198.0,2195.0,2195.0,2186.0,2183.0,2173.0,2162.0,2148.0,2142.0,2135.0,2124.0,2104.0,2098.0,2083.0,2076.0,2066.0,2065.0,2050.0,2034.0,2026.0,2022.0,2014.0,2010.0,1996.0,1991.0,1989.0,1984.0,1981.0,1972.0,1965.0,1957.0,1955.0,1951.0,1947.0,1943.0,1946.0,1942.0,1941.0,1945.0,1947.0,1947.0,1949.0,1947.0,1947.0,1954.0,1961.0,1961.0,1965.0,1965.0,1978.0,1979.0,1985.0,1991.0,1996.0,2003.0,2005.0,2015.0,2018.0,2024.0,2028.0,2037.0,2041.0,2048.0,2053.0,2055.0,2057.0,2058.0,2057.0,2059.0,2059.0,2056.0,2056.0,2054.0,2052.0,2056.0,2052.0,2050.0,2046.0,2049.0,2048.0,2051.0,2046.0,2049.0,2050.0,2049.0,2051.0,2045.0,2047.0,2050.0,2055.0,2050.0,2058.0,2054.0,2060.0,2065.0,2072.0,2071.0,2078.0,2090.0,2093.0,2096.0,2100.0,2102.0,2106.0,2116.0,2117.0,2124.0,2131.0,2136.0,2136.0,2139.0,2146.0,2146.0,2146.0,2152.0,2151.0,2156.0,2157.0,2159.0,2160.0,2159.0,2161.0,2161.0,2163.0,2161.0,2165.0,2163.0,2164.0,2165.0,2165.0,2167.0,2172.0,2169.0,2172.0,2174.0,2173.0,2170.0,2176.0,2175.0,2175.0,2175.0,2172.0,2171.0,2164.0,2168.0,2164.0,2163.0,2159.0,2159.0,2150.0,2150.0,2139.0,2141.0,2138.0,2136.0,2137.0,2135.0,2126.0,2121.0,2114.0,2112.0,2111.0,2104.0,2104.0,2095.0,2091.0,2091.0,2079.0,2072.0,2068.0,2067.0,2062.0,2053.0,2053.0,2048.0,2050.0,2046.0,2043.0,2042.0,2040.0,2041.0,2039.0,2043.0,2045.0,2047.0,2045.0,2047.0,2049.0,2055.0,2055.0,2064.0,2063.0,2067.0,2076.0,2075.0,2078.0,2079.0,2087.0,2094.0,2097.0,2098.0,2105.0,2106.0,2105.0,2111.0,2107.0,2106.0,2105.0,2111.0,2108.0,2112.0,2111.0,2110.0,2107.0,2110.0,2111.0,2111.0,2107.0,2105.0,2100.0","10","even","NA","NA","NA","arithmetic","105618","189374","NA","103358","194375","NA","102920","NA","NA","1737","186620","NA","188620","NA","189375","NA","1832","NA","NA","NA","194696","NA","183799","NA","194376","NA","186179","NA","182915","NA","103358","3064","NA","NA","NA","NA","102921","183799","NA","Extended template","0","0","0","yes","1024"
"undefined","undefined","undefined","undefined","black","[ 2086.  2085.  2085.  2084.  2089.  2087.  2092.  2089.  2085.  2085.
  2095.  2097.  2097.  2100.  2102.  2104.  2110.  2112.  2114.  2117.
  2116.  2118.  2120.  2123.  2125.  2123.  2129.  2127.  2131.  2131.
  2132.  2132.  2131.  2133.  2135.  2132.  2129.  2129.  2127.  2124.
  2122.  2116.  2119.  2117.  2117.  2114.  2110.  2111.  2111.  2108.
  2106.  2102.  2102.  2103.  2103.  2103.  2093.  2096.  2100.  2099.
  2098.  2099.  2097.  2097.  2106.  2106.  2105.  2108.  2110.  2113.
  2119.  2122.  2121.  2126.  2127.]","yes","xpyriment","legacy","legacy","0","uniform","undefined","undefined","0","8","NA","0","8","NA","0","0","0","0","8","NA","8","NA","8","NA","0","0","NA","NA","8","NA","8","NA","8","NA","8","NA","8","NA","0","0","0","0","NA","NA","0","8","NA","10/18/18 14:51:50","A template containing a practice and an experimental phase","hard","yes","Experiment.osexp","C:\Users\EEGExp\Desktop","no","mono","no","18","no","white","no","Ok","yes","768","legacy","8","8","0","C:/Users/EEGExp/Desktop/subject-10.csv","xpyriment","","Kafkaesque Koffka","3.2.5","yes","[ 2131.  2133.  2133.  2138.  2135.  2137.  2138.  2141.  2137.  2138.
  2145.  2140.  2139.  2141.  2144.  2142.  2141.  2141.  2143.  2143.
  2144.  2144.  2140.  2138.  2137.  2138.  2140.  2133.  2132.  2133.
  2131.  2131.  2130.  2128.  2131.  2125.  2121.  2121.  2120.  2116.
  2119.  2110.  2113.  2108.  2107.  2109.  2106.  2100.  2102.  2100.
  2097.  2101.  2099.  2101.  2095.  2097.  2095.  2087.  2084.  2085.
  2087.  2084.  2084.  2080.  2084.  2081.  2082.  2081.  2074.  2071.
  2071.  2067.  2058.  2057.  2052.  2047.  2035.  2033.  2027.  2022.
  2016.  2013.  2000.  1996.  1983.  1974.  1975.  1970.  1967.  1962.
  1956.  1951.  1947.  1945.  1940.  1938.  1940.  1937.  1937.  1934.
  1936.  1937.  1937.  1938.  1945.  1939.  1948.  1947.  1953.  1951.
  1956.  1963.  1970.  1971.  1972.  1979.  1983.  1987.  1994.  1996.
  2003.  2011.  2015.  2018.  2021.  2028.  2034.  2040.  2043.  2054.
  2058.  2068.  2077.  2082.  2085.  2096.  2106.  2109.  2118.  2124.
  2131.  2143.  2148.  2156.  2158.  2167.  2169.  2177.  2184.  2188.
  2195.  2194.  2198.  2204.  2210.  2213.  2213.  2221.  2220.  2224.
  2229.  2233.  2236.  2246.  2248.  2252.  2258.  2260.  2264.  2272.
  2272.  2277.  2279.  2280.  2285.  2292.  2289.  2296.  2298.  2303.
  2310.  2312.  2312.  2316.  2323.  2324.  2328.  2328.  2330.  2334.
  2334.  2336.  2341.  2342.  2341.  2341.  2340.  2341.  2338.  2339.
  2334.  2332.  2327.  2323.  2318.  2317.  2308.  2300.  2290.  2280.
  2269.  2269.  2251.  2240.  2234.  2223.  2208.  2196.  2184.  2181.
  2176.  2170.  2158.  2154.  2152.  2144.  2137.  2136.  2131.  2130.
  2122.  2124.  2123.  2119.  2115.  2117.  2119.  2119.  2119.  2124.
  2123.  2122.  2123.  2127.  2127.  2125.  2134.  2130.  2137.  2143.
  2141.  2140.  2138.  2141.  2141.  2150.  2146.  2146.  2146.  2150.
  2149.  2148.  2152.  2151.  2151.  2153.  2154.  2155.  2157.  2163.
  2159.  2159.  2162.  2162.  2162.  2165.  2167.  2168.  2165.  2160.
  2167.  2166.  2171.  2170.  2174.  2178.  2179.  2181.  2177.  2179.
  2175.  2177.  2174.  2176.  2175.  2173.  2170.  2172.  2163.  2162.
  2161.  2157.  2154.  2148.  2146.  2141.  2134.  2136.  2127.  2129.
  2119.  2119.  2113.  2109.  2103.  2105.  2105.  2103.  2100.  2094.
  2093.  2094.  2092.  2090.  2089.  2087.  2088.  2082.  2081.  2075.
  2078.  2076.  2076.  2073.  2071.  2071.  2064.  2065.  2066.  2062.
  2060.  2062.  2059.  2051.  2057.  2055.  2053.  2052.  2047.  2046.
  2042.  2041.  2042.  2038.  2034.  2031.  2027.  2026.  2023.  2020.
  2021.  2019.  2016.  2014.  2013.  2011.  2014.  2011.  2008.  2009.
  2008.  2005.  2009.  2013.  2012.  2019.  2020.  2022.  2023.  2022.
  2028.  2024.  2032.  2030.  2028.  2028.  2032.  2034.  2030.  2027.
  2023.  2016.  2015.  2012.  2008.  2010.  2011.  2006.  2007.  2008.
  2001.  2005.  2009.  2008.  2014.  2013.  2012.  2012.  2018.  2017.
  2020.  2021.  2020.  2028.  2028.  2029.  2033.  2035.  2038.  2040.
  2044.  2047.  2052.  2053.  2059.  2059.  2062.  2069.  2073.  2074.
  2080.  2086.  2092.  2101.  2108.  2116.  2124.  2124.  2135.  2140.
  2150.  2159.  2165.  2173.  2181.  2189.  2200.  2205.  2208.  2218.
  2229.  2236.  2245.  2256.  2262.  2262.  2266.  2280.  2281.  2285.
  2294.  2295.  2302.  2303.  2304.  2307.  2306.  2306.  2306.  2304.
  2306.  2303.  2301.  2302.  2296.  2296.  2289.  2289.  2290.  2285.
  2278.  2276.  2272.  2271.  2266.  2260.  2256.  2257.  2256.  2246.
  2246.  2247.  2243.  2241.  2240.  2235.  2238.  2237.  2237.  2232.]","4x - 2 = 10","0","space","NA","NA","space","1232","NA","NA","1232","LinregressResult(slope=0.11338254953019808, intercept=2100.9996713426854, rvalue=0.15920405674206453, pvalue=0.00035181097882472129, stderr=0.031506681808474608)","2","legacy","0.11338254953","1024","2","48000","-16","experiment","2086.0,2085.0,2085.0,2084.0,2089.0,2087.0,2092.0,2089.0,2085.0,2085.0,2095.0,2097.0,2097.0,2100.0,2102.0,2104.0,2110.0,2112.0,2114.0,2117.0,2116.0,2118.0,2120.0,2123.0,2125.0,2123.0,2129.0,2127.0,2131.0,2131.0,2132.0,2132.0,2131.0,2133.0,2135.0,2132.0,2129.0,2129.0,2127.0,2124.0,2122.0,2116.0,2119.0,2117.0,2117.0,2114.0,2110.0,2111.0,2111.0,2108.0,2106.0,2102.0,2102.0,2103.0,2103.0,2103.0,2093.0,2096.0,2100.0,2099.0,2098.0,2099.0,2097.0,2097.0,2106.0,2106.0,2105.0,2108.0,2110.0,2113.0,2119.0,2122.0,2121.0,2126.0,2127.0","2131.0,2133.0,2133.0,2138.0,2135.0,2137.0,2138.0,2141.0,2137.0,2138.0,2145.0,2140.0,2139.0,2141.0,2144.0,2142.0,2141.0,2141.0,2143.0,2143.0,2144.0,2144.0,2140.0,2138.0,2137.0,2138.0,2140.0,2133.0,2132.0,2133.0,2131.0,2131.0,2130.0,2128.0,2131.0,2125.0,2121.0,2121.0,2120.0,2116.0,2119.0,2110.0,2113.0,2108.0,2107.0,2109.0,2106.0,2100.0,2102.0,2100.0,2097.0,2101.0,2099.0,2101.0,2095.0,2097.0,2095.0,2087.0,2084.0,2085.0,2087.0,2084.0,2084.0,2080.0,2084.0,2081.0,2082.0,2081.0,2074.0,2071.0,2071.0,2067.0,2058.0,2057.0,2052.0,2047.0,2035.0,2033.0,2027.0,2022.0,2016.0,2013.0,2000.0,1996.0,1983.0,1974.0,1975.0,1970.0,1967.0,1962.0,1956.0,1951.0,1947.0,1945.0,1940.0,1938.0,1940.0,1937.0,1937.0,1934.0,1936.0,1937.0,1937.0,1938.0,1945.0,1939.0,1948.0,1947.0,1953.0,1951.0,1956.0,1963.0,1970.0,1971.0,1972.0,1979.0,1983.0,1987.0,1994.0,1996.0,2003.0,2011.0,2015.0,2018.0,2021.0,2028.0,2034.0,2040.0,2043.0,2054.0,2058.0,2068.0,2077.0,2082.0,2085.0,2096.0,2106.0,2109.0,2118.0,2124.0,2131.0,2143.0,2148.0,2156.0,2158.0,2167.0,2169.0,2177.0,2184.0,2188.0,2195.0,2194.0,2198.0,2204.0,2210.0,2213.0,2213.0,2221.0,2220.0,2224.0,2229.0,2233.0,2236.0,2246.0,2248.0,2252.0,2258.0,2260.0,2264.0,2272.0,2272.0,2277.0,2279.0,2280.0,2285.0,2292.0,2289.0,2296.0,2298.0,2303.0,2310.0,2312.0,2312.0,2316.0,2323.0,2324.0,2328.0,2328.0,2330.0,2334.0,2334.0,2336.0,2341.0,2342.0,2341.0,2341.0,2340.0,2341.0,2338.0,2339.0,2334.0,2332.0,2327.0,2323.0,2318.0,2317.0,2308.0,2300.0,2290.0,2280.0,2269.0,2269.0,2251.0,2240.0,2234.0,2223.0,2208.0,2196.0,2184.0,2181.0,2176.0,2170.0,2158.0,2154.0,2152.0,2144.0,2137.0,2136.0,2131.0,2130.0,2122.0,2124.0,2123.0,2119.0,2115.0,2117.0,2119.0,2119.0,2119.0,2124.0,2123.0,2122.0,2123.0,2127.0,2127.0,2125.0,2134.0,2130.0,2137.0,2143.0,2141.0,2140.0,2138.0,2141.0,2141.0,2150.0,2146.0,2146.0,2146.0,2150.0,2149.0,2148.0,2152.0,2151.0,2151.0,2153.0,2154.0,2155.0,2157.0,2163.0,2159.0,2159.0,2162.0,2162.0,2162.0,2165.0,2167.0,2168.0,2165.0,2160.0,2167.0,2166.0,2171.0,2170.0,2174.0,2178.0,2179.0,2181.0,2177.0,2179.0,2175.0,2177.0,2174.0,2176.0,2175.0,2173.0,2170.0,2172.0,2163.0,2162.0,2161.0,2157.0,2154.0,2148.0,2146.0,2141.0,2134.0,2136.0,2127.0,2129.0,2119.0,2119.0,2113.0,2109.0,2103.0,2105.0,2105.0,2103.0,2100.0,2094.0,2093.0,2094.0,2092.0,2090.0,2089.0,2087.0,2088.0,2082.0,2081.0,2075.0,2078.0,2076.0,2076.0,2073.0,2071.0,2071.0,2064.0,2065.0,2066.0,2062.0,2060.0,2062.0,2059.0,2051.0,2057.0,2055.0,2053.0,2052.0,2047.0,2046.0,2042.0,2041.0,2042.0,2038.0,2034.0,2031.0,2027.0,2026.0,2023.0,2020.0,2021.0,2019.0,2016.0,2014.0,2013.0,2011.0,2014.0,2011.0,2008.0,2009.0,2008.0,2005.0,2009.0,2013.0,2012.0,2019.0,2020.0,2022.0,2023.0,2022.0,2028.0,2024.0,2032.0,2030.0,2028.0,2028.0,2032.0,2034.0,2030.0,2027.0,2023.0,2016.0,2015.0,2012.0,2008.0,2010.0,2011.0,2006.0,2007.0,2008.0,2001.0,2005.0,2009.0,2008.0,2014.0,2013.0,2012.0,2012.0,2018.0,2017.0,2020.0,2021.0,2020.0,2028.0,2028.0,2029.0,2033.0,2035.0,2038.0,2040.0,2044.0,2047.0,2052.0,2053.0,2059.0,2059.0,2062.0,2069.0,2073.0,2074.0,2080.0,2086.0,2092.0,2101.0,2108.0,2116.0,2124.0,2124.0,2135.0,2140.0,2150.0,2159.0,2165.0,2173.0,2181.0,2189.0,2200.0,2205.0,2208.0,2218.0,2229.0,2236.0,2245.0,2256.0,2262.0,2262.0,2266.0,2280.0,2281.0,2285.0,2294.0,2295.0,2302.0,2303.0,2304.0,2307.0,2306.0,2306.0,2306.0,2304.0,2306.0,2303.0,2301.0,2302.0,2296.0,2296.0,2289.0,2289.0,2290.0,2285.0,2278.0,2276.0,2272.0,2271.0,2266.0,2260.0,2256.0,2257.0,2256.0,2246.0,2246.0,2247.0,2243.0,2241.0,2240.0,2235.0,2238.0,2237.0,2237.0,2232.0","10","even","NA","NA","NA","arithmetic","105618","199711","NA","103358","204712","NA","102920","NA","NA","1737","196957","NA","198957","NA","199712","NA","1832","NA","NA","NA","205033","NA","195605","NA","204713","NA","196607","NA","194712","NA","103358","3064","NA","NA","NA","NA","102921","195605","NA","Extended template","0","0","0","yes","1024"
"undefined","undefined","undefined","undefined","black","[ 1980.  1979.  1980.  1979.  1975.  1975.  1972.  1974.  1972.  1977.
  1979.  1972.  1980.  1983.  1985.  1983.  1990.  1985.  1995.  1997.
  1995.  1999.  2001.  2001.  2009.  2012.  2013.  2022.  2023.  2030.
  2032.  2040.  2041.  2040.  2047.  2053.  2054.  2056.  2059.  2063.
  2067.  2068.  2070.  2077.  2082.  2087.  2093.  2089.  2097.  2089.
  2095.  2093.  2092.  2095.  2097.  2093.  2088.  2084.  2079.  2079.
  2077.  2070.  2063.  2058.  2051.  2045.  2038.  2033.  2027.  2027.
  2017.  2011.  2005.  2005.  1998.]","yes","xpyriment","legacy","legacy","0","uniform","undefined","undefined","0","9","NA","0","9","NA","0","0","0","0","9","NA","9","NA","9","NA","0","0","NA","NA","9","NA","9","NA","9","NA","9","NA","9","NA","0","0","0","0","NA","NA","0","9","NA","10/18/18 14:51:50","A template containing a practice and an experimental phase","medium","yes","Experiment.osexp","C:\Users\EEGExp\Desktop","no","mono","no","18","no","white","no","Ok","yes","768","legacy","9","9","0","C:/Users/EEGExp/Desktop/subject-10.csv","xpyriment","","Kafkaesque Koffka","3.2.5","yes","[ 1991.  1991.  1982.  1979.  1976.  1976.  1978.  1978.  1978.  1979.
  1982.  1989.  1990.  1994.  1997.  2006.  2014.  2020.  2025.  2032.
  2039.  2045.  2057.  2067.  2073.  2082.  2091.  2103.  2104.  2114.
  2124.  2128.  2134.  2141.  2142.  2147.  2154.  2154.  2155.  2163.
  2168.  2177.  2171.  2182.  2188.  2188.  2192.  2199.  2206.  2212.
  2225.  2231.  2233.  2243.  2245.  2258.  2263.  2272.  2279.  2278.
  2289.  2293.  2294.  2299.  2306.  2312.  2314.  2313.  2313.  2326.
  2329.  2328.  2333.  2334.  2340.  2348.  2351.  2360.  2365.  2362.
  2373.  2368.  2377.  2384.  2382.  2387.  2394.  2396.  2406.  2411.
  2416.  2419.  2418.  2423.  2428.  2429.  2431.  2432.  2442.  2445.
  2442.  2444.  2444.  2446.  2449.  2448.  2449.  2449.  2448.  2452.
  2445.  2446.  2443.  2441.  2443.  2437.  2438.  2433.  2430.  2430.
  2429.  2426.  2425.  2420.  2424.  2423.  2425.  2424.  2424.  2426.
  2423.  2422.  2429.  2430.  2433.  2435.  2437.  2436.  2439.  2443.
  2446.  2449.  2455.  2457.  2451.  2459.  2459.  2455.  2463.  2463.
  2463.  2462.  2470.  2468.  2469.  2473.  2467.  2474.  2469.  2473.
  2475.  2472.  2481.  2478.  2482.  2479.  2484.  2487.  2486.  2487.
  2489.  2495.  2498.  2493.  2497.  2499.  2501.  2501.  2505.  2500.
  2502.  2502.  2496.  2495.  2495.  2494.  2494.  2490.  2491.  2492.
  2487.  2488.  2487.  2487.  2490.  2484.  2481.  2479.  2479.  2475.
  2478.  2473.  2473.  2471.  2471.  2470.  2468.  2465.  2463.  2471.
  2470.  2472.  2476.  2467.  2469.  2466.  2469.  2471.  2478.  2474.
  2475.  2475.  2478.  2479.  2473.  2479.  2482.  2478.  2482.  2486.
  2484.  2483.  2480.  2487.  2481.  2480.  2473.  2468.  2468.  2463.
  2458.  2454.  2452.  2448.  2439.  2426.  2421.  2419.  2407.  2401.
  2390.  2386.  2375.  2379.  2360.  2361.  2353.  2352.  2345.  2334.
  2329.  2328.  2321.  2319.  2321.  2315.  2303.  2302.  2294.  2294.
  2290.  2282.  2274.  2264.  2256.  2243.  2239.  2230.  2212.  2209.
  2197.  2186.  2177.  2169.  2159.  2147.  2142.  2137.  2122.  2116.
  2116.  2110.  2104.  2096.  2087.  2086.  2080.  2076.  2071.  2067.
  2070.  2065.  2060.  2058.  2057.  2055.  2056.  2054.  2054.  2049.
  2049.  2050.  2049.  2043.  2045.  2043.  2041.  2035.  2037.  2035.
  2031.  2032.  2029.  2032.  2031.  2029.  2032.  2034.  2038.  2038.
  2039.  2043.  2044.  2044.  2049.  2055.  2059.  2065.  2071.  2075.
  2081.  2089.  2095.  2102.  2109.  2114.  2118.  2128.  2129.  2135.
  2141.  2150.  2153.  2153.  2164.  2162.  2169.  2172.  2178.  2186.
  2189.  2197.  2201.  2207.  2214.  2215.  2214.  2219.  2221.  2221.
  2226.  2229.  2224.  2230.  2231.  2221.  2223.  2222.  2220.  2222.
  2224.  2221.  2224.  2218.  2218.  2216.  2217.  2215.  2220.  2219.
  2225.  2222.  2224.  2227.  2230.  2229.  2232.  2230.  2232.  2227.
  2235.  2234.  2238.  2241.  2242.  2244.  2249.  2255.  2258.  2260.
  2261.  2262.  2266.  2268.  2268.  2270.  2270.  2271.  2278.  2276.
  2278.  2280.  2278.  2277.  2277.  2275.  2272.  2270.  2272.  2268.
  2268.  2266.  2265.  2264.  2272.  2259.  2264.  2264.  2265.  2268.
  2270.  2274.  2277.  2281.  2283.  2284.  2288.  2296.  2298.  2299.
  2304.  2307.  2311.  2316.  2320.  2322.  2324.  2323.  2327.  2327.
  2330.  2330.  2330.  2331.  2329.  2327.  2327.  2321.  2321.  2314.
  2307.  2301.  2295.  2285.  2280.  2271.  2268.  2258.  2250.  2252.
  2242.  2241.  2236.  2232.  2225.  2221.  2221.  2224.  2217.  2212.
  2211.  2211.  2203.  2210.  2209.  2207.  2208.  2209.  2207.  2206.]","4x = 16","0","space","NA","NA","space","1232","NA","NA","1232","LinregressResult(slope=-0.17320878883515531, intercept=2328.9528016032064, rvalue=-0.16558619436091948, pvalue=0.00019996802296801634, stderr=0.046226825076443469)","2","legacy","-0.173208788835","1024","2","48000","-16","experiment","1980.0,1979.0,1980.0,1979.0,1975.0,1975.0,1972.0,1974.0,1972.0,1977.0,1979.0,1972.0,1980.0,1983.0,1985.0,1983.0,1990.0,1985.0,1995.0,1997.0,1995.0,1999.0,2001.0,2001.0,2009.0,2012.0,2013.0,2022.0,2023.0,2030.0,2032.0,2040.0,2041.0,2040.0,2047.0,2053.0,2054.0,2056.0,2059.0,2063.0,2067.0,2068.0,2070.0,2077.0,2082.0,2087.0,2093.0,2089.0,2097.0,2089.0,2095.0,2093.0,2092.0,2095.0,2097.0,2093.0,2088.0,2084.0,2079.0,2079.0,2077.0,2070.0,2063.0,2058.0,2051.0,2045.0,2038.0,2033.0,2027.0,2027.0,2017.0,2011.0,2005.0,2005.0,1998.0","1991.0,1991.0,1982.0,1979.0,1976.0,1976.0,1978.0,1978.0,1978.0,1979.0,1982.0,1989.0,1990.0,1994.0,1997.0,2006.0,2014.0,2020.0,2025.0,2032.0,2039.0,2045.0,2057.0,2067.0,2073.0,2082.0,2091.0,2103.0,2104.0,2114.0,2124.0,2128.0,2134.0,2141.0,2142.0,2147.0,2154.0,2154.0,2155.0,2163.0,2168.0,2177.0,2171.0,2182.0,2188.0,2188.0,2192.0,2199.0,2206.0,2212.0,2225.0,2231.0,2233.0,2243.0,2245.0,2258.0,2263.0,2272.0,2279.0,2278.0,2289.0,2293.0,2294.0,2299.0,2306.0,2312.0,2314.0,2313.0,2313.0,2326.0,2329.0,2328.0,2333.0,2334.0,2340.0,2348.0,2351.0,2360.0,2365.0,2362.0,2373.0,2368.0,2377.0,2384.0,2382.0,2387.0,2394.0,2396.0,2406.0,2411.0,2416.0,2419.0,2418.0,2423.0,2428.0,2429.0,2431.0,2432.0,2442.0,2445.0,2442.0,2444.0,2444.0,2446.0,2449.0,2448.0,2449.0,2449.0,2448.0,2452.0,2445.0,2446.0,2443.0,2441.0,2443.0,2437.0,2438.0,2433.0,2430.0,2430.0,2429.0,2426.0,2425.0,2420.0,2424.0,2423.0,2425.0,2424.0,2424.0,2426.0,2423.0,2422.0,2429.0,2430.0,2433.0,2435.0,2437.0,2436.0,2439.0,2443.0,2446.0,2449.0,2455.0,2457.0,2451.0,2459.0,2459.0,2455.0,2463.0,2463.0,2463.0,2462.0,2470.0,2468.0,2469.0,2473.0,2467.0,2474.0,2469.0,2473.0,2475.0,2472.0,2481.0,2478.0,2482.0,2479.0,2484.0,2487.0,2486.0,2487.0,2489.0,2495.0,2498.0,2493.0,2497.0,2499.0,2501.0,2501.0,2505.0,2500.0,2502.0,2502.0,2496.0,2495.0,2495.0,2494.0,2494.0,2490.0,2491.0,2492.0,2487.0,2488.0,2487.0,2487.0,2490.0,2484.0,2481.0,2479.0,2479.0,2475.0,2478.0,2473.0,2473.0,2471.0,2471.0,2470.0,2468.0,2465.0,2463.0,2471.0,2470.0,2472.0,2476.0,2467.0,2469.0,2466.0,2469.0,2471.0,2478.0,2474.0,2475.0,2475.0,2478.0,2479.0,2473.0,2479.0,2482.0,2478.0,2482.0,2486.0,2484.0,2483.0,2480.0,2487.0,2481.0,2480.0,2473.0,2468.0,2468.0,2463.0,2458.0,2454.0,2452.0,2448.0,2439.0,2426.0,2421.0,2419.0,2407.0,2401.0,2390.0,2386.0,2375.0,2379.0,2360.0,2361.0,2353.0,2352.0,2345.0,2334.0,2329.0,2328.0,2321.0,2319.0,2321.0,2315.0,2303.0,2302.0,2294.0,2294.0,2290.0,2282.0,2274.0,2264.0,2256.0,2243.0,2239.0,2230.0,2212.0,2209.0,2197.0,2186.0,2177.0,2169.0,2159.0,2147.0,2142.0,2137.0,2122.0,2116.0,2116.0,2110.0,2104.0,2096.0,2087.0,2086.0,2080.0,2076.0,2071.0,2067.0,2070.0,2065.0,2060.0,2058.0,2057.0,2055.0,2056.0,2054.0,2054.0,2049.0,2049.0,2050.0,2049.0,2043.0,2045.0,2043.0,2041.0,2035.0,2037.0,2035.0,2031.0,2032.0,2029.0,2032.0,2031.0,2029.0,2032.0,2034.0,2038.0,2038.0,2039.0,2043.0,2044.0,2044.0,2049.0,2055.0,2059.0,2065.0,2071.0,2075.0,2081.0,2089.0,2095.0,2102.0,2109.0,2114.0,2118.0,2128.0,2129.0,2135.0,2141.0,2150.0,2153.0,2153.0,2164.0,2162.0,2169.0,2172.0,2178.0,2186.0,2189.0,2197.0,2201.0,2207.0,2214.0,2215.0,2214.0,2219.0,2221.0,2221.0,2226.0,2229.0,2224.0,2230.0,2231.0,2221.0,2223.0,2222.0,2220.0,2222.0,2224.0,2221.0,2224.0,2218.0,2218.0,2216.0,2217.0,2215.0,2220.0,2219.0,2225.0,2222.0,2224.0,2227.0,2230.0,2229.0,2232.0,2230.0,2232.0,2227.0,2235.0,2234.0,2238.0,2241.0,2242.0,2244.0,2249.0,2255.0,2258.0,2260.0,2261.0,2262.0,2266.0,2268.0,2268.0,2270.0,2270.0,2271.0,2278.0,2276.0,2278.0,2280.0,2278.0,2277.0,2277.0,2275.0,2272.0,2270.0,2272.0,2268.0,2268.0,2266.0,2265.0,2264.0,2272.0,2259.0,2264.0,2264.0,2265.0,2268.0,2270.0,2274.0,2277.0,2281.0,2283.0,2284.0,2288.0,2296.0,2298.0,2299.0,2304.0,2307.0,2311.0,2316.0,2320.0,2322.0,2324.0,2323.0,2327.0,2327.0,2330.0,2330.0,2330.0,2331.0,2329.0,2327.0,2327.0,2321.0,2321.0,2314.0,2307.0,2301.0,2295.0,2285.0,2280.0,2271.0,2268.0,2258.0,2250.0,2252.0,2242.0,2241.0,2236.0,2232.0,2225.0,2221.0,2221.0,2224.0,2217.0,2212.0,2211.0,2211.0,2203.0,2210.0,2209.0,2207.0,2208.0,2209.0,2207.0,2206.0","10","even","NA","NA","NA","arithmetic","105618","210049","NA","103358","215050","NA","102920","NA","NA","1737","207295","NA","209295","NA","210050","NA","1832","NA","NA","NA","215371","NA","205959","NA","215051","NA","206960","NA","205068","NA","103358","3064","NA","NA","NA","NA","102921","205959","NA","Extended template","0","0","0","yes","1024"
"undefined","undefined","undefined","undefined","black","[ 2155.  2155.  2158.  2160.  2157.  2158.  2161.  2163.  2164.  2164.
  2164.  2164.  2162.  2166.  2166.  2162.  2164.  2163.  2160.  2161.
  2163.  2159.  2163.  2160.  2156.  2158.  2152.  2157.  2157.  2160.
  2157.  2156.  2151.  2156.  2158.  2157.  2162.  2157.  2160.  2158.
  2156.  2161.  2161.  2160.  2163.  2162.  2165.  2164.  2163.  2161.
  2165.  2165.  2161.  2160.  2160.  2159.  2157.  2160.  2156.  2159.
  2153.  2160.  2156.  2153.  2153.  2152.  2154.  2154.  2152.  2152.
  2150.  2152.  2145.  2149.  2143.]","yes","xpyriment","legacy","legacy","0","uniform","undefined","undefined","0","10","NA","0","10","NA","0","0","0","0","10","NA","10","NA","10","NA","0","0","NA","NA","10","NA","10","NA","10","NA","10","NA","10","NA","0","0","0","0","NA","NA","0","10","NA","10/18/18 14:51:50","A template containing a practice and an experimental phase","hard","yes","Experiment.osexp","C:\Users\EEGExp\Desktop","no","mono","no","18","no","white","no","Ok","yes","768","legacy","10","10","0","C:/Users/EEGExp/Desktop/subject-10.csv","xpyriment","","Kafkaesque Koffka","3.2.5","yes","[ 2147.  2140.  2140.  2138.  2138.  2137.  2133.  2134.  2129.  2131.
  2129.  2134.  2128.  2126.  2127.  2116.  2123.  2118.  2117.  2114.
  2115.  2107.  2105.  2102.  2100.  2101.  2101.  2098.  2097.  2093.
  2095.  2096.  2092.  2092.  2092.  2087.  2089.  2087.  2079.  2075.
  2070.  2065.  2064.  2057.  2058.  2052.  2053.  2051.  2049.  2050.
  2051.  2051.  2052.  2056.  2056.  2062.  2060.  2063.  2068.  2070.
  2077.  2078.  2078.  2081.  2086.  2090.  2095.  2098.  2103.  2108.
  2112.  2119.  2119.  2129.  2128.  2136.  2139.  2142.  2146.  2147.
  2157.  2158.  2167.  2168.  2172.  2176.  2179.  2185.  2184.  2188.
  2195.  2195.  2195.  2196.  2197.  2204.  2204.  2206.  2206.  2210.
  2212.  2206.  2207.  2210.  2209.  2212.  2215.  2210.  2214.  2213.
  2212.  2213.  2213.  2212.  2214.  2212.  2210.  2212.  2210.  2210.
  2212.  2207.  2211.  2218.  2215.  2218.  2216.  2220.  2225.  2223.
  2226.  2229.  2231.  2234.  2236.  2240.  2243.  2246.  2250.  2255.
  2261.  2267.  2272.  2276.  2281.  2282.  2292.  2291.  2302.  2308.
  2311.  2320.  2327.  2335.  2341.  2347.  2347.  2353.  2360.  2365.
  2366.  2364.  2366.  2367.  2364.  2362.  2363.  2365.  2357.  2355.
  2353.  2351.  2346.  2341.  2337.  2330.  2326.  2324.  2321.  2312.
  2307.  2303.  2303.  2294.  2290.  2288.  2281.  2283.  2281.  2274.
  2274.  2272.  2270.  2270.  2270.  2270.  2270.  2269.  2271.  2269.
  2268.  2271.  2273.  2272.  2276.  2278.  2279.  2279.  2281.  2284.
