"acc","accuracy","average_response_time","avg_rt","background","bidi","canvas_backend","clock_backend","color_backend","compensation","coordinates","correct","correct_instructions","correct_keyboard_response","count_about_this_template","count_arithmetic","count_arithmetic_task","count_blank_screen","count_blank_screen_1","count_blocksequence","count_collect_pupil_trace","count_end_of_experiment","count_end_of_practice","count_experiment","count_experimental_loop","count_feedback","count_fixation_cross","count_fixation_cross_1","count_instructions","count_instructions2","count_keyboard_response","count_letter_task_1","count_logger","count_new_inline_script","count_new_inline_script_1","count_new_logger","count_new_logger_1","count_new_loop","count_new_pygaze_drift_correct","count_new_pygaze_drift_correct_1","count_new_pygaze_log","count_new_pygaze_log_1","count_new_pygaze_log_2","count_new_pygaze_start_recording","count_new_pygaze_start_recording_1","count_new_pygaze_stop_recording","count_new_pygaze_stop_recording_1","count_practice_instructions","count_pygaze_init","count_reset_feedback","count_reversal","count_sketchpad","count_training","count_trial_sequence","count_trial_sequence_1","datetime","description","difficulty","disable_garbage_collection","experiment_file","experiment_path","font_bold","font_family","font_italic","font_size","font_underline","foreground","form_clicks","fullscreen","height","keyboard_backend","live_row","live_row_reversal","live_row_training","logfile","mouse_backend","opensesame_codename","opensesame_version","practice","pupilsizes","questin_no","question_no","repeat_cycle","response","response_end_of_experiment","response_end_of_practice","response_feedback","response_instructions","response_keyboard_response","response_time","response_time_end_of_experiment","response_time_end_of_practice","response_time_feedback","response_time_instructions","response_time_keyboard_response","round_decimals","sampler_backend","sound_buf_size","sound_channels","sound_freq","sound_sample_size","start","subject_nr","subject_parity","time_about_this_template","time_arithmetic","time_arithmetic_task","time_blank_screen","time_blank_screen_1","time_blocksequence","time_collect_pupil_trace","time_end_of_experiment","time_end_of_practice","time_experiment","time_experimental_loop","time_feedback","time_fixation_cross","time_fixation_cross_1","time_instructions","time_instructions2","time_keyboard_response","time_letter_task_1","time_logger","time_new_inline_script","time_new_inline_script_1","time_new_logger","time_new_logger_1","time_new_loop","time_new_pygaze_drift_correct","time_new_pygaze_drift_correct_1","time_new_pygaze_log","time_new_pygaze_log_1","time_new_pygaze_log_2","time_new_pygaze_start_recording","time_new_pygaze_start_recording_1","time_new_pygaze_stop_recording","time_new_pygaze_stop_recording_1","time_practice_instructions","time_pygaze_init","time_reset_feedback","time_reversal","time_sketchpad","time_training","time_trial_sequence","time_trial_sequence_1","title","total_correct","total_response_time","total_responses","uniform_coordinates","width"
"undefined","undefined","undefined","undefined","black","yes","xpyriment","legacy","legacy","0","uniform","undefined","undefined","NA","NA","0","NA","NA","0","0","0","0","0","0","0","NA","NA","0","0","0","NA","0","NA","NA","0","NA","0","NA","NA","0","NA","NA","0","NA","0","NA","0","0","0","0","0","NA","0","NA","0","10/04/18 16:17:57","A template containing a practice and an experimental phase","hard","yes","Experiment.osexp","C:\Users\EEGExp\Desktop","no","mono","no","18","no","white","no","yes","768","legacy","0","0","0","C:/Users/EEGExp/Desktop/subject-4.csv","xpyriment","Kafkaesque Koffka","3.2.5","yes","[ 1871.  1869.  1874.  1870.  1875.  1878.  1879.  1880.  1882.  1881.
  1885.  1883.  1889.  1897.  1887.  1888.  1890.  1890.  1889.  1895.
  1894.  1892.  1894.  1885.  1882.  1888.  1886.  1882.  1875.  1876.
  1878.  1879.  1876.  1872.  1870.  1877.  1874.  1871.  1869.  1876.
  1871.  1870.  1875.  1875.  1883.  1877.  1871.  1877.  1871.  1870.
  1869.  1865.  1867.  1867.  1867.  1865.  1864.  1865.  1868.  1865.
  1861.  1865.  1865.  1864.  1862.  1865.  1854.  1853.  1858.  1858.
  1853.  1856.  1853.  1844.  1838.  1840.  1837.  1835.  1837.  1836.
  1831.  1834.  1835.  1837.  1830.  1827.  1826.  1833.  1835.  1833.
  1837.  1835.  1834.  1843.  1839.  1842.  1836.  1837.  1837.  1834.
  1833.  1832.  1835.  1833.  1834.  1832.  1828.  1829.  1834.  1829.
  1833.  1833.  1826.  1830.  1825.  1834.  1831.  1829.  1837.  1830.
  1841.  1839.  1840.  1834.  1836.  1838.  1833.  1828.  1826.  1828.
  1824.  1820.  1816.  1812.  1806.  1807.  1795.  1796.  1795.  1787.
  1789.  1787.  1784.  1782.  1774.  1770.  1773.  1774.  1771.  1772.
  1772.  1766.  1765.  1763.  1761.  1765.  1767.  1764.  1763.  1762.
  1758.  1761.  1759.  1762.  1754.  1753.  1753.  1750.  1741.  1740.
  1737.  1730.  1729.  1723.  1722.  1721.  1721.  1720.  1716.  1711.
  1704.  1704.  1700.  1698.  1699.  1703.  1699.  1700.  1704.  1699.
  1696.  1698.  1693.  1692.  1691.  1690.  1686.  1689.  1686.  1687.
  1681.  1685.  1681.  1675.  1668.  1671.  1669.  1663.  1662.  1658.
  1657.  1652.  1652.  1645.  1643.  1646.  1648.  1644.  1645.  1645.
  1642.  1646.  1649.  1645.  1649.  1653.  1664.  1665.  1665.  1673.
  1670.  1674.  1683.  1690.  1697.  1699.  1710.  1713.  1724.  1725.
  1733.  1743.  1744.  1748.  1755.  1766.  1767.  1779.  1777.  1798.
  1796.  1794.  1798.  1798.  1817.  1817.  1821.  1818.  1822.  1824.
  1830.  1832.  1830.  1834.  1834.  1843.  1844.  1837.  1842.  1834.
  1831.  1831.  1824.  1823.  1826.  1820.  1809.  1799.  1794.  1791.
  1786.  1772.  1766.  1757.  1742.  1745.  1731.  1728.  1726.  1720.
  1719.  1714.  1712.  1711.  1703.  1713.  1718.  1711.  1712.  1712.
  1719.  1725.  1719.  1727.  1729.  1730.  1736.  1741.  1749.  1752.
  1753.  1755.  1758.  1768.  1773.  1771.  1786.  1784.  1800.  1792.
  1794.  1793.  1802.  1797.  1797.  1803.  1805.  1803.  1812.  1812.
  1823.  1825.  1819.  1830.  1831.  1835.  1839.  1844.  1846.  1852.
  1861.  1860.  1860.  1870.  1883.  1879.  1885.  1899.  1896.  1900.
  1909.  1918.  1923.  1925.  1930.  1943.  1943.  1948.  1945.  1947.
  1944.  1948.  1949.  1950.  1949.  1945.  1949.  1944.  1937.  1926.
  1932.  1917.  1915.  1911.  1914.  1909.  1909.  1905.  1901.  1905.
  1913.  1909.  1902.  1909.  1906.  1907.  1911.  1910.  1913.  1912.
  1916.  1917.  1908.  1916.  1911.  1919.  1924.  1916.  1915.]","NA","digital","0","space","NA","NA","NA","space","NA","799","NA","NA","NA","799","NA","2","legacy","1024","2","48000","-16","experiment","4","even","NA","NA","NA","NA","89771","83360","82569","NA","NA","2541","NA","NA","NA","86260","2596","NA","NA","87766","NA","NA","89772","NA","93773","NA","NA","83957","NA","NA","93771","NA","85889","NA","NA","NA","3395","NA","83360","NA","82569","NA","83957","Extended template","0","0","0","yes","1024"
"undefined","undefined","undefined","undefined","black","yes","xpyriment","legacy","legacy","0","uniform","undefined","undefined","NA","NA","0","NA","NA","1","0","0","0","0","0","0","NA","NA","1","0","0","NA","1","NA","NA","1","NA","1","NA","NA","1","NA","NA","1","NA","1","NA","1","0","0","0","0","NA","0","NA","1","10/04/18 16:17:57","A template containing a practice and an experimental phase","easy","yes","Experiment.osexp","C:\Users\EEGExp\Desktop","no","mono","no","18","no","white","no","yes","768","legacy","1","1","0","C:/Users/EEGExp/Desktop/subject-4.csv","xpyriment","Kafkaesque Koffka","3.2.5","yes","[ 1669.  1669.  1674.  1673.  1673.  1680.  1682.  1684.  1685.  1686.
  1689.  1687.  1688.  1686.  1691.  1691.  1690.  1690.  1689.  1685.
  1688.  1691.  1692.  1690.  1689.  1687.  1690.  1695.  1693.  1697.
  1699.  1700.  1703.  1704.  1711.  1711.  1715.  1720.  1720.  1717.
  1726.  1731.  1732.  1734.  1734.  1738.  1744.  1744.  1746.  1751.
  1751.  1759.  1760.  1761.  1761.  1763.  1773.  1766.  1767.  1767.
  1768.  1765.  1770.  1770.  1768.  1768.  1770.  1767.  1768.  1776.
  1775.  1776.  1778.  1779.  1781.  1784.  1783.  1787.  1786.  1789.
  1795.  1791.  1794.  1792.  1793.  1786.  1794.  1791.  1789.  1789.
  1787.  1784.  1795.  1795.  1794.  1793.  1797.  1795.  1796.  1797.
  1799.  1800.  1798.  1803.  1803.  1803.  1798.  1800.  1802.  1799.
  1800.  1801.  1798.  1793.  1793.  1795.  1788.  1784.  1774.  1764.
  1764.  1757.  1751.  1749.  1743.  1738.  1736.  1735.  1727.  1722.
  1714.  1713.  1709.  1706.  1702.  1694.  1696.  1691.  1687.  1686.
  1683.  1682.  1681.  1674.  1677.  1677.  1675.  1674.  1676.  1673.
  1676.  1680.  1672.  1681.  1683.  1680.  1680.  1683.  1686.  1687.
  1686.  1685.  1690.  1691.  1686.  1688.  1688.  1684.  1685.  1685.
  1682.  1680.  1678.  1676.  1669.  1675.  1671.  1669.  1664.  1666.
  1660.  1655.  1659.  1658.  1658.  1658.  1656.  1653.  1657.  1658.
  1655.  1657.  1656.  1658.  1656.  1656.  1656.  1658.  1649.  1650.
  1650.  1651.  1642.  1646.  1646.  1643.  1649.  1646.  1650.  1647.
  1643.  1648.  1649.  1647.  1648.  1648.  1650.  1648.  1652.  1642.
  1648.  1649.  1645.  1641.  1643.  1647.  1638.  1639.  1639.  1637.
  1637.  1630.  1630.  1627.  1628.  1630.  1629.  1633.  1634.  1632.
  1632.  1634.  1637.  1641.  1642.  1648.  1651.  1652.  1658.  1657.
  1662.  1669.  1658.  1662.  1662.  1666.  1665.  1662.  1659.  1666.
  1667.  1662.  1662.  1663.  1660.  1656.  1657.  1650.  1651.  1641.
  1643.  1637.  1633.  1636.  1630.  1627.  1622.  1621.  1622.  1620.
  1619.  1615.  1621.  1616.  1625.  1622.  1624.  1625.  1630.  1626.
  1632.  1630.  1630.  1638.  1634.  1639.  1646.  1642.  1648.  1651.
  1655.  1660.  1655.  1658.  1657.  1659.  1664.  1664.  1664.  1669.
  1669.  1668.  1668.  1668.  1672.  1678.  1676.  1676.  1674.  1680.
  1678.  1679.  1679.  1680.  1685.  1683.  1684.  1682.  1680.  1682.
  1678.  1681.  1684.  1681.  1673.  1675.  1669.  1668.  1667.  1667.
  1661.  1661.  1660.  1653.  1655.  1653.  1658.  1655.  1656.  1655.
  1657.  1658.  1651.  1654.  1656.  1659.  1656.  1662.  1662.  1667.
  1666.  1666.  1665.  1669.  1674.  1675.  1682.  1683.  1686.  1690.
  1693.  1697.  1702.  1703.  1701.  1704.  1704.  1709.  1704.  1708.
  1701.  1703.  1697.  1701.  1691.  1687.  1686.  1687.  1686.  1680.
  1678.  1670.  1668.  1671.  1671.  1673.  1668.  1668.  1668.]","NA","dog","0","space","NA","NA","NA","space","NA","799","NA","NA","NA","799","NA","2","legacy","1024","2","48000","-16","experiment","4","even","NA","NA","NA","NA","101470","83360","82569","NA","NA","2541","NA","NA","NA","97960","2596","NA","NA","99465","NA","NA","101471","NA","105472","NA","NA","95050","NA","NA","105470","NA","97610","NA","93813","NA","3395","NA","83360","NA","82569","NA","95050","Extended template","0","0","0","yes","1024"
"undefined","undefined","undefined","undefined","black","yes","xpyriment","legacy","legacy","0","uniform","undefined","undefined","NA","NA","0","NA","NA","2","0","0","0","0","0","0","NA","NA","2","0","0","NA","2","NA","NA","2","NA","2","NA","NA","2","NA","NA","2","NA","2","NA","2","0","0","0","0","NA","0","NA","2","10/04/18 16:17:57","A template containing a practice and an experimental phase","medium","yes","Experiment.osexp","C:\Users\EEGExp\Desktop","no","mono","no","18","no","white","no","yes","768","legacy","2","2","0","C:/Users/EEGExp/Desktop/subject-4.csv","xpyriment","Kafkaesque Koffka","3.2.5","yes","[ 2114.  2119.  2117.  2124.  2127.  2126.  2132.  2133.  2134.  2135.
  2132.  2132.  2134.  2129.  2128.  2125.  2118.  2104.  2102.  2095.
  2086.  2076.  2072.  2051.  2046.  2040.  2037.  2027.  2018.  2015.
  2011.  2003.  1999.  1996.  1992.  1989.  1985.  1982.  1978.  1978.
  1981.  1977.  1976.  1973.  1974.  1972.  1973.  1974.  1975.  1973.
  1979.  1978.  1978.  1984.  1987.  1991.  1998.  1998.  2007.  2021.
  2027.  2026.  2036.  2042.  2045.  2049.  2053.  2058.  2064.  2070.
  2075.  2082.  2087.  2089.  2095.  2104.  2110.  2111.  2116.  2116.
  2121.  2117.  2118.  2115.  2115.  2108.  2102.  2110.  2097.  2052.
  1999.  1119.   882.     0.     0.     0.     0.     0.     0.     0.
     0.     0.     0.     0.     0.     0.     0.     0.     0.     0.
     0.     0.     0.     0.     0.     0.     0.     0.     0.     0.
     0.     0.     0.     0.     0.     0.     0.     0.     0.     0.
     0.     0.     0.     0.     0.     0.     0.     0.     0.     0.
     0.     0.     0.     0.     0.     0.     0.     0.     0.     0.
     0.     0.     0.     0.     0.     0.     0.     0.     0.     0.
     0.     0.     0.     0.     0.     0.     0.     0.     0.     0.
     0.     0.     0.     0.     0.     0.     0.     0.     0.     0.
     0.     0.     0.     0.     0.     0.     0.     0.     0.     0.
     0.     0.     0.  2399.  2420.  2365.  2353.  2338.  2318.  2312.
  2307.  2306.  2300.  2294.  2293.  2284.  2279.  2277.  2265.  2253.
  2229.  2202.  2170.  2138.  2089.  2045.  1998.  1959.  1919.  1873.
  1838.  1802.  1771.  1747.  1716.  1679.  1653.  1641.  1630.  1613.
  1597.  1584.  1568.  1553.  1544.  1534.  1526.  1516.  1505.  1493.
  1492.  1486.  1479.  1473.  1476.  1469.  1467.  1463.  1464.  1467.
  1464.  1469.  1468.  1466.  1473.  1477.  1476.  1484.  1484.  1490.
  1497.  1505.  1510.  1519.  1523.  1534.  1544.  1548.  1558.  1569.
  1577.  1590.  1599.  1608.  1620.  1630.  1638.  1652.  1660.  1669.
  1682.  1689.  1701.  1710.  1721.  1729.  1734.  1743.  1749.  1755.
  1755.  1757.  1758.  1760.  1754.  1754.  1754.  1746.  1739.  1735.
  1731.  1721.  1712.  1709.  1704.  1694.  1692.  1676.  1668.  1659.
  1652.  1648.  1643.  1636.  1631.  1630.  1628.  1622.  1619.  1618.
  1619.  1617.  1618.  1618.  1622.  1624.  1626.  1631.  1637.  1638.
  1642.  1651.  1657.  1660.  1666.  1680.  1688.  1695.  1704.  1719.
  1728.  1739.  1745.  1758.  1767.  1778.  1790.  1804.  1806.  1815.
  1824.  1835.  1849.  1861.  1870.  1878.  1885.  1896.  1899.  1913.
  1917.  1922.  1928.  1934.  1941.  1946.  1953.  1957.  1964.  1966.
  1973.  1975.  1982.  1986.  1991.  1994.  2001.  2003.  2007.  2011.
  2014.  2021.  2023.  2027.  2033.  2033.  2040.  2043.  2047.  2051.
  2052.  2057.  2056.  2055.  2054.  2056.  2051.  2057.  2053.]","NA","satan","0","space","NA","NA","NA","space","NA","799","NA","NA","NA","799","NA","2","legacy","1024","2","48000","-16","experiment","4","even","NA","NA","NA","NA","112079","83360","82569","NA","NA","2541","NA","NA","NA","108569","2596","NA","NA","110074","NA","NA","112080","NA","116081","NA","NA","106904","NA","NA","116079","NA","108204","NA","105489","NA","3395","NA","83360","NA","82569","NA","106903","Extended template","0","0","0","yes","1024"
"undefined","undefined","undefined","undefined","black","yes","xpyriment","legacy","legacy","0","uniform","undefined","undefined","NA","NA","0","NA","NA","3","0","0","0","0","0","0","NA","NA","3","0","0","NA","3","NA","NA","3","NA","3","NA","NA","3","NA","NA","3","NA","3","NA","3","0","0","0","0","NA","0","NA","3","10/04/18 16:17:57","A template containing a practice and an experimental phase","hard","yes","Experiment.osexp","C:\Users\EEGExp\Desktop","no","mono","no","18","no","white","no","yes","768","legacy","3","3","0","C:/Users/EEGExp/Desktop/subject-4.csv","xpyriment","Kafkaesque Koffka","3.2.5","yes","[ 1674.  1658.  1639.  1625.  1604.  1583.  1569.  1556.  1539.  1526.
  1519.  1504.  1493.  1478.  1470.  1467.  1448.  1440.  1429.  1429.
  1418.  1409.  1401.  1393.  1387.  1381.  1369.  1367.  1365.  1358.
  1357.  1347.  1346.  1345.  1338.  1339.  1337.  1333.  1334.  1334.
  1335.  1338.  1335.  1338.  1342.  1344.  1345.  1348.  1357.  1359.
  1363.  1362.  1366.  1372.  1376.  1374.  1377.  1378.  1384.  1386.
  1383.  1385.  1388.  1390.  1394.  1393.  1398.  1398.  1398.  1401.
  1405.  1408.  1410.  1413.  1414.  1421.  1425.  1426.  1429.  1433.
  1433.  1438.  1445.  1445.  1450.  1452.  1453.  1463.  1461.  1469.
  1471.  1476.  1477.  1477.  1478.  1484.  1481.  1483.  1488.  1490.
  1493.  1495.  1500.  1500.  1500.  1505.  1508.  1512.  1512.  1511.
  1517.  1514.  1515.  1522.  1521.  1525.  1528.  1527.  1526.  1531.
  1533.  1530.  1524.  1530.  1530.  1537.  1533.  1531.  1535.  1532.
  1538.  1541.  1544.  1548.  1550.  1551.  1552.  1558.  1562.  1566.
  1574.  1575.  1580.  1584.  1589.  1591.  1599.  1600.  1601.  1603.
  1606.  1608.  1609.  1609.  1618.  1618.  1620.  1625.  1626.  1625.
  1622.  1628.  1631.  1634.  1638.  1637.  1642.  1646.  1644.  1651.
  1657.  1659.  1661.  1667.  1671.  1671.  1674.  1680.  1677.  1676.
  1684.  1682.  1687.  1687.  1687.  1692.  1688.  1694.  1693.  1696.
  1699.  1703.  1705.  1710.  1710.  1712.  1714.  1717.  1721.  1725.
  1726.  1725.  1730.  1733.  1735.  1738.  1738.  1739.  1744.  1748.
  1753.  1749.  1755.  1756.  1757.  1762.  1765.  1765.  1766.  1766.
  1771.  1769.  1772.  1770.  1776.  1776.  1779.  1778.  1783.  1786.
  1788.  1787.  1792.  1791.  1793.  1801.  1791.  1796.  1799.  1798.
  1804.  1803.  1795.  1784.  1783.  1793.  1793.  1791.  1791.  1795.
  1797.  1801.  1797.  1795.  1794.  1800.  1797.  1802.  1803.  1800.
  1800.  1804.  1811.  1810.  1811.  1813.  1814.  1809.  1812.  1813.
  1812.  1814.  1805.  1807.  1803.  1800.  1796.  1796.  1796.  1795.
  1793.  1789.  1788.  1788.  1783.  1782.  1780.  1776.  1776.  1770.
  1769.  1763.  1762.  1760.  1751.  1749.  1743.  1742.  1728.  1725.
  1720.  1710.  1710.  1711.  1709.  1711.  1711.  1706.  1703.  1706.
  1702.  1702.  1699.  1701.  1704.  1701.  1700.  1700.  1700.  1701.
  1699.  1696.  1700.  1703.  1703.  1699.  1700.  1704.  1703.  1707.
  1710.  1711.  1714.  1713.  1731.  1739.  1742.  1739.  1743.  1741.
  1744.  1745.  1745.  1752.  1753.  1761.  1763.  1764.  1764.  1766.
  1769.  1769.  1768.  1770.  1763.  1768.  1765.  1768.  1765.  1764.
  1765.  1761.  1762.  1760.  1759.  1762.  1761.  1762.  1762.  1764.
  1772.  1773.  1780.  1786.  1784.  1788.  1798.  1801.  1805.  1813.
  1816.  1824.  1832.  1836.  1843.  1845.  1850.  1854.  1866.  1870.
  1877.  1882.  1892.  1899.  1898.  1906.  1906.  1914.  1916.]","NA","lucifer","0","space","NA","NA","NA","space","NA","799","NA","NA","NA","799","NA","2","legacy","1024","2","48000","-16","experiment","4","even","NA","NA","NA","NA","122181","83360","82569","NA","NA","2541","NA","NA","NA","118672","2596","NA","NA","120177","NA","NA","122183","NA","126184","NA","NA","117278","NA","NA","126182","NA","118309","NA","116100","NA","3395","NA","83360","NA","82569","NA","117278","Extended template","0","0","0","yes","1024"
"undefined","undefined","undefined","undefined","black","yes","xpyriment","legacy","legacy","0","uniform","undefined","undefined","NA","NA","0","NA","NA","4","0","0","0","0","0","0","NA","NA","4","0","0","NA","4","NA","NA","4","NA","4","NA","NA","4","NA","NA","4","NA","4","NA","4","0","0","0","0","NA","0","NA","4","10/04/18 16:17:57","A template containing a practice and an experimental phase","medium","yes","Experiment.osexp","C:\Users\EEGExp\Desktop","no","mono","no","18","no","white","no","yes","768","legacy","4","4","0","C:/Users/EEGExp/Desktop/subject-4.csv","xpyriment","Kafkaesque Koffka","3.2.5","yes","[ 1522.  1518.  1518.  1517.  1520.  1519.  1517.  1516.  1516.  1515.
  1511.  1512.  1516.  1513.  1512.  1510.  1512.  1511.  1512.  1511.
  1512.  1513.  1518.  1511.  1519.  1515.  1519.  1518.  1521.  1523.
  1525.  1524.  1527.  1529.  1532.  1536.  1537.  1545.  1539.  1544.
  1551.  1555.  1557.  1559.  1562.  1563.  1566.  1569.  1570.  1574.
  1579.  1579.  1577.  1576.  1574.  1573.  1570.  1570.  1578.  1576.
  1578.  1578.  1578.  1575.  1578.  1582.  1580.  1579.  1584.  1586.
  1592.  1590.  1593.  1594.  1596.  1603.  1598.  1597.  1601.  1602.
  1603.  1615.  1614.  1616.  1610.  1613.  1617.  1616.  1615.  1615.
  1614.  1616.  1620.  1618.  1619.  1627.  1624.  1624.  1623.  1624.
  1625.  1624.  1622.  1619.  1616.  1613.  1610.  1610.  1603.  1599.
  1596.  1595.  1592.  1588.  1591.  1580.  1580.  1580.  1577.  1579.
  1577.  1575.  1576.  1576.  1576.  1577.  1580.  1577.  1580.  1582.
  1586.  1585.  1581.  1584.  1584.  1584.  1586.  1586.  1586.  1584.
  1583.  1581.  1579.  1578.  1579.  1577.  1576.  1573.  1571.  1569.
  1568.  1565.  1561.  1559.  1567.  1560.  1559.  1561.  1560.  1560.
  1562.  1561.  1564.  1564.  1568.  1565.  1566.  1561.  1565.  1560.
  1559.  1560.  1557.  1551.  1549.  1545.  1543.  1539.  1535.  1535.
  1533.  1526.  1523.  1517.  1513.  1509.  1508.  1510.  1509.  1509.
  1504.  1508.  1505.  1507.  1517.  1511.  1521.  1520.  1524.  1524.
  1523.  1533.  1533.  1534.  1535.  1534.  1534.  1533.  1538.  1532.
  1530.  1536.  1530.  1532.  1530.  1529.  1533.  1531.  1532.  1532.
  1531.  1534.  1535.  1536.  1536.  1543.  1546.  1544.  1549.  1550.
  1554.  1557.  1560.  1564.  1569.  1572.  1575.  1584.  1587.  1589.
  1592.  1593.  1600.  1597.  1597.  1604.  1603.  1608.  1607.  1605.
  1600.  1601.  1600.  1599.  1604.  1599.  1599.  1598.  1597.  1594.
  1594.  1589.  1590.  1589.  1587.  1584.  1582.  1584.  1578.  1584.
  1583.  1580.  1581.  1585.  1586.  1584.  1583.  1584.  1594.  1587.
  1591.  1594.  1595.  1597.  1599.  1599.  1603.  1604.  1608.  1608.
  1610.  1612.  1609.  1611.  1612.  1611.  1606.  1613.  1609.  1606.
  1606.  1607.  1609.  1611.  1611.  1615.  1612.  1614.  1616.  1618.
  1622.  1626.  1627.  1631.  1635.  1632.  1639.  1645.  1644.  1647.
  1652.  1657.  1655.  1652.  1656.  1660.  1654.  1661.  1665.  1660.
  1662.  1666.  1664.  1664.  1669.  1671.  1673.  1672.  1671.  1674.
  1673.  1672.  1674.  1673.  1673.  1674.  1675.  1675.  1671.  1675.
  1672.  1671.  1673.  1675.  1674.  1673.  1681.  1678.  1675.  1675.
  1677.  1678.  1671.  1673.  1674.  1672.  1678.  1677.  1674.  1676.
  1673.  1677.  1675.  1675.  1681.  1678.  1678.  1678.  1679.  1683.
  1683.  1677.  1678.  1680.  1679.  1680.  1682.  1681.  1681.  1682.
  1683.  1676.  1674.  1674.  1673.  1673.  1668.  1663.  1661.]","NA","glass","0","space","NA","NA","NA","space","NA","799","NA","NA","NA","799","NA","2","legacy","1024","2","48000","-16","experiment","4","even","NA","NA","NA","NA","134503","83360","82569","NA","NA","2541","NA","NA","NA","130987","2596","NA","NA","132498","NA","NA","134504","NA","138505","NA","NA","127375","NA","NA","138503","NA","130626","NA","126199","NA","3395","NA","83360","NA","82569","NA","127375","Extended template","0","0","0","yes","1024"
"undefined","undefined","undefined","undefined","black","yes","xpyriment","legacy","legacy","0","uniform","undefined","undefined","NA","NA","0","NA","NA","5","0","0","0","0","0","0","NA","NA","5","0","0","NA","5","NA","NA","5","NA","5","NA","NA","5","NA","NA","5","NA","5","NA","5","0","0","0","0","NA","0","NA","5","10/04/18 16:17:57","A template containing a practice and an experimental phase","hard","yes","Experiment.osexp","C:\Users\EEGExp\Desktop","no","mono","no","18","no","white","no","yes","768","legacy","5","5","0","C:/Users/EEGExp/Desktop/subject-4.csv","xpyriment","Kafkaesque Koffka","3.2.5","yes","[ 1672.  1676.  1675.  1682.  1683.  1684.  1684.  1680.  1682.  1682.
  1684.  1686.  1687.  1695.  1692.  1692.  1691.  1692.  1691.  1690.
  1690.  1692.  1687.  1688.  1689.  1683.  1684.  1684.  1682.  1680.
  1676.  1674.  1676.  1679.  1678.  1686.  1685.  1686.  1686.  1685.
  1689.  1696.  1690.  1698.  1703.  1701.  1706.  1709.  1708.  1713.
  1710.  1712.  1707.  1703.  1701.  1696.  1686.  1683.  1683.  1678.
  1679.  1674.  1675.  1670.  1665.  1662.  1666.  1669.  1666.  1667.
  1671.  1670.  1674.  1673.  1674.  1680.  1681.  1680.  1681.  1677.
  1687.  1681.  1686.  1684.  1688.  1688.  1693.  1686.  1684.  1677.
  1679.  1674.  1671.  1669.  1660.  1660.  1658.  1656.  1657.  1653.
  1648.  1648.  1648.  1652.  1650.  1652.  1650.  1651.  1656.  1653.
  1650.  1656.  1653.  1657.  1658.  1656.  1659.  1661.  1663.  1664.
  1666.  1669.  1670.  1676.  1679.  1685.  1685.  1689.  1691.  1696.
  1703.  1706.  1712.  1716.  1716.  1722.  1731.  1734.  1734.  1742.
  1741.  1742.  1745.  1750.  1750.  1750.  1751.  1756.  1752.  1757.
  1757.  1757.  1756.  1758.  1758.  1760.  1757.  1757.  1757.  1759.
  1759.  1763.  1763.  1765.  1762.  1767.  1767.  1770.  1770.  1772.
  1770.  1772.  1779.  1777.  1775.  1771.  1776.  1775.  1777.  1778.
  1779.  1780.  1779.  1782.  1787.  1786.  1789.  1793.  1798.  1796.
  1795.  1796.  1802.  1803.  1807.  1800.  1804.  1804.  1805.  1803.
  1804.  1805.  1808.  1805.  1807.  1804.  1810.  1808.  1811.  1809.
  1808.  1808.  1804.  1803.  1803.  1797.  1796.  1801.  1800.  1791.
  1790.  1790.  1791.  1789.  1789.  1789.  1787.  1787.  1783.  1788.
  1789.  1787.  1790.  1789.  1790.  1785.  1794.  1792.  1791.  1789.
  1790.  1795.  1796.  1797.  1803.  1796.  1797.  1795.  1795.  1791.
  1789.  1787.  1785.  1785.  1788.  1790.  1787.  1783.  1788.  1786.
  1786.  1787.  1787.  1793.  1797.  1802.  1802.  1805.  1809.  1809.
  1820.  1817.  1828.  1826.  1831.  1830.  1828.  1827.  1823.  1819.
  1814.  1808.  1798.  1794.  1786.  1777.  1768.  1757.  1747.  1743.
  1735.  1735.  1719.  1712.  1705.  1699.  1695.  1689.  1679.  1675.
  1668.  1658.  1656.  1652.  1646.  1645.  1638.  1642.  1638.  1635.
  1632.  1633.  1635.  1637.  1639.  1634.  1639.  1637.  1635.  1639.
  1639.  1640.  1639.  1642.  1641.  1641.  1643.  1644.  1650.  1651.
  1656.  1664.  1673.  1671.  1680.  1683.  1687.  1690.  1694.  1703.
  1706.  1709.  1713.  1710.  1715.  1716.  1718.  1715.  1716.  1719.
  1720.  1716.  1715.  1722.  1721.  1723.  1723.  1726.  1730.  1732.
  1732.  1737.  1736.  1737.  1735.  1737.  1734.  1754.  1723.  1703.
  1571.   779.     0.     0.     0.     0.     0.     0.     0.     0.
     0.     0.     0.     0.     0.     0.     0.     0.     0.     0.
     0.     0.     0.     0.     0.     0.     0.     0.     0.]","NA","meeting","0","space","NA","NA","NA","space","NA","799","NA","NA","NA","799","NA","2","legacy","1024","2","48000","-16","experiment","4","even","NA","NA","NA","NA","144612","83360","82569","NA","NA","2541","NA","NA","NA","141101","2596","NA","NA","142607","NA","NA","144613","NA","148614","NA","NA","139706","NA","NA","148612","NA","140738","NA","138518","NA","3395","NA","83360","NA","82569","NA","139705","Extended template","0","0","0","yes","1024"
"undefined","undefined","undefined","undefined","black","yes","xpyriment","legacy","legacy","0","uniform","undefined","undefined","NA","NA","0","NA","NA","6","0","0","0","0","0","0","NA","NA","6","0","0","NA","6","NA","NA","6","NA","6","NA","NA","6","NA","NA","6","NA","6","NA","6","0","0","0","0","NA","0","NA","6","10/04/18 16:17:57","A template containing a practice and an experimental phase","easy","yes","Experiment.osexp","C:\Users\EEGExp\Desktop","no","mono","no","18","no","white","no","yes","768","legacy","6","6","0","C:/Users/EEGExp/Desktop/subject-4.csv","xpyriment","Kafkaesque Koffka","3.2.5","yes","[ 1871.  1863.  1856.  1851.  1848.  1846.  1842.  1838.  1833.  1835.
  1833.  1834.  1836.  1837.  1838.  1842.  1843.  1847.  1849.  1849.
  1853.  1861.  1861.  1867.  1874.  1872.  1871.  1876.  1880.  1880.
  1887.  1887.  1886.  1892.  1891.  1895.  1898.  1898.  1902.  1904.
  1909.  1908.  1906.  1913.  1913.  1920.  1924.  1922.  1929.  1929.
  1931.  1935.  1934.  1938.  1937.  1937.  1944.  1934.  1935.  1939.
  1934.  1932.  1931.  1927.  1926.  1920.  1919.  1914.  1907.  1906.
  1903.  1899.  1897.  1897.  1898.  1893.  1889.  1893.  1892.  1890.
  1892.  1886.  1892.  1890.  1892.  1899.  1890.  1896.  1894.  1900.
  1893.  1898.  1900.  1901.  1901.  1902.  1903.  1904.  1902.  1901.
  1909.  1904.  1905.  1903.  1904.  1907.  1910.  1911.  1912.  1912.
  1915.  1914.  1916.  1915.  1918.  1913.  1915.  1912.  1914.  1917.
  1919.  1918.  1918.  1923.  1918.  1924.  1919.  1916.  1916.  1914.
  1913.  1915.  1916.  1916.  1919.  1917.  1917.  1910.  1913.  1907.
  1905.  1902.  1898.  1891.  1888.  1884.  1880.  1880.  1880.  1872.
  1860.  1859.  1859.  1857.  1856.  1848.  1851.  1848.  1844.  1839.
  1834.  1833.  1833.  1832.  1828.  1829.  1827.  1821.  1819.  1820.
  1814.  1813.  1812.  1809.  1808.  1803.  1805.  1801.  1797.  1800.
  1801.  1796.  1801.  1795.  1788.  1788.  1791.  1784.  1780.  1771.
  1761.  1763.  1762.  1763.  1759.  1759.  1753.  1755.  1755.  1753.
  1753.  1752.  1756.  1750.  1751.  1748.  1750.  1749.  1750.  1747.
  1746.  1743.  1742.  1745.  1747.  1743.  1742.  1743.  1737.  1733.
  1735.  1732.  1730.  1732.  1729.  1725.  1715.  1721.  1715.  1718.
  1718.  1713.  1716.  1719.  1715.  1710.  1711.  1709.  1711.  1704.
  1709.  1709.  1710.  1708.  1711.  1708.  1708.  1711.  1705.  1704.
  1703.  1710.  1707.  1715.  1716.  1715.  1713.  1713.  1717.  1717.
  1714.  1723.  1725.  1724.  1728.  1727.  1727.  1730.  1730.  1726.
  1730.  1730.  1730.  1730.  1728.  1723.  1718.  1719.  1712.  1711.
  1703.  1702.  1689.  1694.  1687.  1684.  1683.  1679.  1673.  1676.
  1669.  1668.  1672.  1672.  1671.  1667.  1669.  1669.  1665.  1668.
  1666.  1667.  1673.  1678.  1676.  1675.  1675.  1675.  1680.  1679.
  1685.  1684.  1687.  1694.  1698.  1693.  1698.  1695.  1698.  1696.
  1702.  1697.  1702.  1703.  1704.  1712.  1710.  1706.  1713.  1714.
  1718.  1721.  1720.  1717.  1726.  1722.  1730.  1729.  1735.  1742.
  1740.  1741.  1740.  1737.  1741.  1737.  1745.  1745.  1749.  1746.
  1748.  1753.  1749.  1750.  1753.  1757.  1761.  1760.  1764.  1764.
  1764.  1771.  1773.  1771.  1777.  1774.  1776.  1777.  1782.  1775.
  1784.  1786.  1783.  1790.  1790.  1793.  1789.  1789.  1793.  1796.
  1795.  1801.  1795.  1801.  1806.  1809.  1813.  1814.  1815.  1815.
  1813.  1820.  1822.  1828.  1829.  1835.  1834.  1834.  1836.]","NA","cup","0","space","NA","NA","NA","space","NA","799","NA","NA","NA","799","NA","2","legacy","1024","2","48000","-16","experiment","4","even","NA","NA","NA","NA","158015","83360","82569","NA","NA","2541","NA","NA","NA","154505","2596","NA","NA","156011","NA","NA","158017","NA","162018","NA","NA","149810","NA","NA","162016","NA","154140","NA","148635","NA","3395","NA","83360","NA","82569","NA","149810","Extended template","0","0","0","yes","1024"
"undefined","undefined","undefined","undefined","black","yes","xpyriment","legacy","legacy","0","uniform","undefined","undefined","NA","NA","0","NA","NA","7","0","0","0","0","0","0","NA","NA","7","0","0","NA","7","NA","NA","7","NA","7","NA","NA","7","NA","NA","7","NA","7","NA","7","0","0","0","0","NA","0","NA","7","10/04/18 16:17:57","A template containing a practice and an experimental phase","easy","yes","Experiment.osexp","C:\Users\EEGExp\Desktop","no","mono","no","18","no","white","no","yes","768","legacy","7","7","0","C:/Users/EEGExp/Desktop/subject-4.csv","xpyriment","Kafkaesque Koffka","3.2.5","yes","[ 1441.  1442.  1447.  1448.  1448.  1449.  1456.  1456.  1459.  1457.
  1461.  1463.  1463.  1464.  1468.  1473.  1474.  1476.  1485.  1486.
  1489.  1492.  1496.  1505.  1510.  1508.  1511.  1512.  1519.  1518.
  1527.  1530.  1538.  1541.  1545.  1551.  1551.  1560.  1567.  1575.
  1581.  1584.  1594.  1605.  1606.  1615.  1616.  1627.  1633.  1631.
  1650.  1651.  1657.  1659.  1668.  1670.  1674.  1681.  1683.  1688.
  1693.  1693.  1701.  1706.  1707.  1708.  1715.  1718.  1718.  1720.
  1722.  1721.  1729.  1730.  1735.  1727.  1729.  1737.  1736.  1738.
  1739.  1742.  1743.  1744.  1760.  1743.  1747.  1750.  1747.  1756.
  1748.  1749.  1750.  1747.  1748.  1747.  1752.  1754.  1755.  1755.
  1757.  1758.  1756.  1764.  1765.  1765.  1769.  1769.  1770.  1772.
  1773.  1775.  1781.  1783.  1786.  1785.  1787.  1794.  1791.  1797.
  1793.  1791.  1785.  1787.  1788.  1782.  1782.  1776.  1773.  1772.
  1765.  1762.  1758.  1754.  1750.  1746.  1742.  1737.  1735.  1730.
  1732.  1730.  1728.  1727.  1722.  1726.  1723.  1728.  1726.  1726.
  1724.  1731.  1728.  1730.  1726.  1725.  1729.  1725.  1725.  1726.
  1726.  1727.  1730.  1729.  1729.  1731.  1735.  1735.  1737.  1741.
  1744.  1744.  1748.  1748.  1749.  1751.  1757.  1757.  1758.  1756.
  1760.  1758.  1761.  1762.  1755.  1756.  1751.  1750.  1742.  1738.
  1738.  1734.  1726.  1726.  1724.  1709.  1710.  1707.  1703.  1702.
  1697.  1694.  1692.  1690.  1692.  1692.  1690.  1699.  1703.  1703.
  1705.  1709.  1708.  1712.  1718.  1723.  1726.  1737.  1736.  1746.
  1749.  1755.  1767.  1775.  1778.  1786.  1791.  1797.  1803.  1809.
  1819.  1823.  1823.  1825.  1836.  1842.  1851.  1856.  1862.  1875.
  1882.  1890.  1896.  1900.  1912.  1914.  1930.  1938.  1944.  1952.
  1954.  1969.  1971.  1977.  1982.  1992.  2002.  2006.  2011.  2022.
  2023.  2024.  2031.  2041.  2045.  2048.  2053.  2055.  2062.  2064.
  2072.  2073.  2081.  2087.  2094.  2098.  2099.  2099.  2111.  2112.
  2116.  2119.  2117.  2122.  2124.  2123.  2135.  2131.  2131.  2131.
  2134.  2130.  2136.  2132.  2133.  2138.  2139.  2134.  2136.  2133.
  2144.  2140.  2138.  2135.  2141.  2145.  2138.  2140.  2141.  2140.
  2148.  2149.  2146.  2151.  2144.  2145.  2142.  2144.  2138.  2140.
  2143.  2143.  2145.  2145.  2153.  2151.  2155.  2153.  2155.  2160.
  2162.  2167.  2166.  2170.  2169.  2174.  2172.  2173.  2175.  2174.
  2174.  2180.  2173.  2185.  2186.  2186.  2187.  2192.  2197.  2202.
  2201.  2205.  2213.  2209.  2213.  2227.  2219.  2225.  2227.  2226.
  2231.  2233.  2232.  2237.  2235.  2233.  2231.  2231.  2235.  2231.
  2231.  2235.  2242.  2231.  2230.  2229.  2233.  2230.  2230.  2235.
  2233.  2232.  2232.  2235.  2229.  2237.  2243.  2240.  2242.  2236.
  2240.  2243.  2245.  2245.  2244.  2241.  2245.  2238.  2241.]","NA","pen","0","space","NA","NA","NA","space","NA","799","NA","NA","NA","799","NA","2","legacy","1024","2","48000","-16","experiment","4","even","NA","NA","NA","NA","168417","83360","82569","NA","NA","2541","NA","NA","NA","164906","2596","NA","NA","166412","NA","NA","168418","NA","172419","NA","NA","163213","NA","NA","172417","NA","164544","NA","162035","NA","3395","NA","83360","NA","82569","NA","163213","Extended template","0","0","0","yes","1024"
"undefined","undefined","undefined","undefined","black","yes","xpyriment","legacy","legacy","0","uniform","undefined","undefined","NA","NA","0","NA","NA","8","0","0","0","0","0","0","NA","NA","8","0","0","NA","8","NA","NA","8","NA","8","NA","NA","8","NA","NA","8","NA","8","NA","8","0","0","0","0","NA","0","NA","8","10/04/18 16:17:57","A template containing a practice and an experimental phase","easy","yes","Experiment.osexp","C:\Users\EEGExp\Desktop","no","mono","no","18","no","white","no","yes","768","legacy","8","8","0","C:/Users/EEGExp/Desktop/subject-4.csv","xpyriment","Kafkaesque Koffka","3.2.5","yes","[ 1464.  1448.  1440.  1427.  1419.  1410.  1395.  1394.  1391.  1384.
  1375.  1371.  1362.  1362.  1355.  1349.  1345.  1344.  1338.  1334.
  1327.  1321.  1322.  1313.  1311.  1312.  1305.  1303.  1299.  1304.
  1298.  1293.  1292.  1293.  1284.  1284.  1282.  1280.  1284.  1285.
  1282.  1281.  1278.  1278.  1278.  1280.  1283.  1286.  1291.  1296.
  1296.  1299.  1302.  1299.  1302.  1301.  1303.  1302.  1301.  1306.
  1310.  1309.  1309.  1309.  1310.  1311.  1318.  1313.  1315.  1322.
  1323.  1324.  1326.  1328.  1330.  1328.  1339.  1337.  1341.  1343.
  1345.  1347.  1349.  1351.  1351.  1350.  1349.  1354.  1349.  1348.
  1348.  1350.  1350.  1351.  1355.  1354.  1351.  1352.  1350.  1351.
  1353.  1352.  1357.  1355.  1353.  1353.  1356.  1361.  1356.  1357.
  1361.  1364.  1360.  1363.  1361.  1359.  1357.  1358.  1361.  1362.
  1361.  1361.  1354.  1359.  1356.  1349.  1354.  1356.  1349.  1352.
  1350.  1353.  1353.  1352.  1354.  1354.  1353.  1354.  1352.  1349.
  1353.  1350.  1349.  1351.  1354.  1350.  1352.  1354.  1353.  1351.
  1353.  1353.  1353.  1354.  1355.  1358.  1360.  1358.  1357.  1358.
  1359.  1362.  1361.  1367.  1370.  1368.  1369.  1371.  1381.  1382.
  1378.  1381.  1387.  1385.  1392.  1394.  1393.  1402.  1402.  1405.
  1406.  1410.  1415.  1414.  1415.  1424.  1429.  1429.  1434.  1432.
  1434.  1440.  1441.  1452.  1453.  1456.  1455.  1460.  1462.  1470.
  1474.  1469.  1476.  1476.  1476.  1480.  1483.  1488.  1486.  1490.
  1494.  1493.  1494.  1499.  1499.  1500.  1501.  1503.  1506.  1509.
  1506.  1500.  1505.  1504.  1505.  1509.  1510.  1514.  1515.  1516.
  1511.  1513.  1518.  1520.  1526.  1526.  1529.  1538.  1536.  1542.
  1543.  1553.  1555.  1565.  1562.  1567.  1569.  1579.  1585.  1586.
  1591.  1594.  1604.  1604.  1606.  1606.  1606.  1609.  1613.  1615.
  1612.  1614.  1616.  1612.  1613.  1610.  1606.  1603.  1603.  1595.
  1586.  1591.  1582.  1580.  1579.  1572.  1567.  1569.  1567.  1569.
  1567.  1565.  1558.  1566.  1566.  1570.  1572.  1573.  1575.  1580.
  1579.  1579.  1579.  1578.  1582.  1578.  1578.  1577.  1578.  1578.
  1571.  1570.  1574.  1571.  1573.  1570.  1572.  1569.  1570.  1571.
  1572.  1567.  1571.  1572.  1573.  1576.  1577.  1578.  1583.  1580.
  1580.  1586.  1586.  1585.  1588.  1588.  1593.  1594.  1598.  1597.
  1596.  1603.  1600.  1601.  1607.  1604.  1607.  1602.  1604.  1603.
  1604.  1605.  1602.  1607.  1604.  1607.  1600.  1608.  1608.  1607.
  1608.  1610.  1610.  1616.  1616.  1615.  1617.  1616.  1618.  1620.
  1617.  1625.  1625.  1620.  1623.  1620.  1623.  1625.  1624.  1628.
  1630.  1628.  1631.  1625.  1627.  1627.  1627.  1630.  1629.  1631.
  1630.  1631.  1633.  1634.  1635.  1637.  1637.  1637.  1641.  1642.
  1639.  1643.  1646.  1645.  1653.  1652.  1653.  1655.  1666.]","NA","cat","0","space","NA","NA","NA","space","NA","799","NA","NA","NA","799","NA","2","legacy","1024","2","48000","-16","experiment","4","even","NA","NA","NA","NA","178847","83360","82569","NA","NA","2541","NA","NA","NA","175337","2596","NA","NA","176842","NA","NA","178848","NA","182849","NA","NA","173610","NA","NA","182847","NA","174971","NA","172433","NA","3395","NA","83360","NA","82569","NA","173610","Extended template","0","0","0","yes","1024"
"undefined","undefined","undefined","undefined","black","yes","xpyriment","legacy","legacy","0","uniform","undefined","undefined","NA","NA","0","NA","NA","9","0","0","0","0","0","0","NA","NA","9","0","0","NA","9","NA","NA","9","NA","9","NA","NA","9","NA","NA","9","NA","9","NA","9","0","0","0","0","NA","0","NA","9","10/04/18 16:17:57","A template containing a practice and an experimental phase","easy","yes","Experiment.osexp","C:\Users\EEGExp\Desktop","no","mono","no","18","no","white","no","yes","768","legacy","9","9","0","C:/Users/EEGExp/Desktop/subject-4.csv","xpyriment","Kafkaesque Koffka","3.2.5","yes","[ 1604.  1607.  1608.  1608.  1609.  1611.  1611.  1613.  1617.  1621.
  1620.  1620.  1622.  1626.  1631.  1634.  1631.  1634.  1636.  1642.
  1639.  1637.  1642.  1643.  1642.  1640.  1640.  1637.  1636.  1640.
  1637.  1635.  1634.  1634.  1634.  1632.  1635.  1638.  1636.  1636.
  1633.  1635.  1635.  1634.  1628.  1626.  1626.  1626.  1626.  1622.
  1619.  1617.  1617.  1613.  1610.  1611.  1606.  1609.  1608.  1605.
  1603.  1604.  1601.  1598.  1599.  1595.  1591.  1595.  1595.  1600.
  1596.  1598.  1599.  1595.  1601.  1600.  1603.  1605.  1604.  1611.
  1617.  1619.  1616.  1616.  1620.  1620.  1623.  1627.  1625.  1628.
  1629.  1629.  1632.  1631.  1629.  1633.  1631.  1637.  1633.  1631.
  1634.  1634.  1634.  1633.  1636.  1637.  1636.  1640.  1633.  1635.
  1638.  1638.  1635.  1631.  1631.  1638.  1637.  1631.  1634.  1633.
  1633.  1626.  1630.  1629.  1630.  1628.  1623.  1626.  1628.  1622.
  1625.  1620.  1623.  1623.  1621.  1616.  1621.  1620.  1618.  1620.
  1617.  1622.  1630.  1641.  1641.  1645.  1637.  1633.  1647.  1634.
  1565.  1145.   662.   208.     0.     0.     0.     0.     0.     0.
     0.     0.     0.     0.     0.     0.     0.     0.     0.     0.
     0.     0.     0.     0.     0.     0.     0.     0.     0.     0.
     0.     0.     0.     0.     0.     0.     0.     0.     0.     0.
     0.     0.     0.     0.     0.     0.     0.     0.     0.     0.
     0.     0.     0.     0.     0.     0.     0.     0.     0.     0.
     0.     0.     0.     0.     0.     0.     0.     0.     0.     0.
     0.     0.     0.     0.     0.     0.     0.     0.     0.     0.
     0.     0.     0.     0.     0.     0.     0.     0.     0.     0.
     0.     0.     0.     0.     0.     0.     0.     0.     0.     0.
     0.     0.     0.     0.     0.     0.     0.     0.     0.     0.
     0.     0.     0.     0.     0.     0.     0.     0.     0.     0.
     0.     0.     0.     0.     0.     0.     0.     0.     0.     0.
     0.     0.     0.     0.     0.     0.     0.     0.     0.     0.
     0.     0.     0.     0.     0.     0.     0.     0.     0.     0.
     0.     0.     0.     0.     0.     0.     0.     0.     0.     0.
     0.     0.     0.     0.     0.     0.     0.     0.     0.     0.
     0.     0.     0.     0.     0.     0.     0.     0.     0.     0.
     0.     0.     0.     0.     0.     0.     0.     0.     0.     0.
     0.     0.     0.     0.     0.     0.     0.     0.     0.     0.
     0.     0.     0.     0.     0.     0.     0.     0.     0.     0.
     0.     0.  2962.  2954.  2871.  2860.  2819.  2776.  2742.  2717.
  2711.  2709.  2700.  2683.  2655.  2657.  2661.  2662.  2670.  2669.
  2670.  2672.  2673.  2665.  2655.  2640.  2632.  2608.  2583.  2554.
  2526.  2493.  2457.  2414.  2373.  2339.  2294.  2258.  2215.]","NA","bed","0","space","NA","NA","NA","space","NA","799","NA","NA","NA","799","NA","2","legacy","1024","2","48000","-16","experiment","4","even","NA","NA","NA","NA","192644","83360","82569","NA","NA","2541","NA","NA","NA","189134","2596","NA","NA","190640","NA","NA","192646","NA","196647","NA","NA","184048","NA","NA","196645","NA","188769","NA","182870","NA","3395","NA","83360","NA","82569","NA","184048","Extended template","0","0","0","yes","1024"
"undefined","undefined","undefined","undefined","black","yes","xpyriment","legacy","legacy","0","uniform","undefined","undefined","NA","NA","0","NA","NA","10","0","0","0","0","0","0","NA","NA","10","0","0","NA","10","NA","NA","10","NA","10","NA","NA","10","NA","NA","10","NA","10","NA","10","0","0","0","0","NA","0","NA","10","10/04/18 16:17:57","A template containing a practice and an experimental phase","medium","yes","Experiment.osexp","C:\Users\EEGExp\Desktop","no","mono","no","18","no","white","no","yes","768","legacy","10","10","0","C:/Users/EEGExp/Desktop/subject-4.csv","xpyriment","Kafkaesque Koffka","3.2.5","yes","[ 1455.  1856.  1890.  1892.  1889.  1894.  1893.  1893.  1896.  1895.
  1894.  1898.  1894.  1895.  1900.  1904.  1905.  1905.  1911.  1913.
  1915.  1913.  1914.  1907.  1899.  1896.  1885.  1871.  1861.  1840.
  1817.  1808.  1789.  1776.  1763.  1746.  1739.  1724.  1716.  1705.
  1697.  1695.  1680.  1674.  1674.  1665.  1658.  1650.  1643.  1640.
  1635.  1628.  1628.  1610.  1607.  1605.  1595.  1573.  1568.  1565.
  1564.  1562.  1549.  1539.  1538.  1533.  1529.  1521.  1513.  1513.
  1516.  1517.  1517.  1512.  1509.  1513.  1510.  1510.  1510.  1506.
  1508.  1506.  1503.  1510.  1508.  1505.  1505.  1508.  1510.  1510.
  1516.  1515.  1520.  1530.  1533.  1539.  1542.  1546.  1552.  1567.
  1569.  1576.  1585.  1584.  1597.  1602.  1607.  1609.  1619.  1623.
  1628.  1631.  1637.  1640.  1643.  1646.  1647.  1653.  1655.  1665.
  1671.  1672.  1673.  1665.  1672.  1673.  1672.  1677.  1673.  1674.
  1673.  1671.  1675.  1663.  1657.  1660.  1655.  1651.  1652.  1655.
  1652.  1654.  1654.  1653.  1657.  1661.  1661.  1661.  1667.  1673.
  1684.  1683.  1690.  1691.  1698.  1710.  1717.  1726.  1731.  1740.
  1743.  1759.  1760.  1779.  1775.  1790.  1798.  1799.  1811.  1820.
  1824.  1828.  1835.  1837.  1837.  1837.  1837.  1836.  1838.  1836.
  1833.  1833.  1830.  1823.  1823.  1823.  1819.  1819.  1819.  1817.
  1811.  1817.  1813.  1818.  1818.  1811.  1815.  1820.  1828.  1826.
  1826.  1830.  1834.  1832.  1838.  1837.  1840.  1842.  1844.  1853.
  1855.  1855.  1862.  1861.  1861.  1864.  1866.  1864.  1870.  1869.
  1868.  1866.  1879.  1872.  1872.  1868.  1865.  1875.  1864.  1867.
  1862.  1870.  1869.  1864.  1866.  1860.  1859.  1860.  1864.  1870.
  1863.  1865.  1867.  1865.  1866.  1865.  1865.  1858.  1857.  1860.
  1859.  1853.  1844.  1849.  1840.  1828.  1829.  1826.  1812.  1824.
  1816.  1815.  1810.  1804.  1799.  1801.  1799.  1796.  1786.  1786.
  1789.  1783.  1776.  1774.  1771.  1775.  1772.  1765.  1763.  1768.
  1765.  1759.  1762.  1760.  1759.  1761.  1761.  1756.  1754.  1756.
  1758.  1754.  1756.  1749.  1744.  1743.  1746.  1747.  1748.  1738.
  1740.  1734.  1738.  1735.  1733.  1734.  1733.  1733.  1737.  1734.
  1734.  1728.  1737.  1733.  1736.  1737.  1736.  1742.  1739.  1739.
  1741.  1736.  1739.  1742.  1737.  1737.  1740.  1745.  1741.  1743.
  1740.  1742.  1744.  1747.  1748.  1756.  1752.  1759.  1756.  1764.
  1757.  1766.  1765.  1769.  1769.  1772.  1775.  1769.  1770.  1769.
  1768.  1767.  1770.  1768.  1769.  1769.  1773.  1773.  1780.  1774.
  1787.  1786.  1790.  1791.  1798.  1802.  1810.  1814.  1815.  1829.
  1824.  1841.  1843.  1852.  1860.  1871.  1876.  1893.  1898.  1903.
  1908.  1916.  1923.  1925.  1933.  1933.  1937.  1943.  1938.  1940.
  1938.  1934.  1934.  1933.  1933.  1933.  1931.  1932.  1936.]","NA","demon","0","space","NA","NA","NA","space","NA","799","NA","NA","NA","799","NA","2","legacy","1024","2","48000","-16","experiment","4","even","NA","NA","NA","NA","203351","83360","82569","NA","NA","2541","NA","NA","NA","199840","2596","NA","NA","201346","NA","NA","203352","NA","207353","NA","NA","197845","NA","NA","207351","NA","199477","NA","196670","NA","3395","NA","83360","NA","82569","NA","197845","Extended template","0","0","0","yes","1024"
"undefined","undefined","undefined","undefined","black","yes","xpyriment","legacy","legacy","0","uniform","undefined","undefined","NA","NA","0","NA","NA","11","0","0","0","0","0","0","NA","NA","11","0","0","NA","11","NA","NA","11","NA","11","NA","NA","11","NA","NA","11","NA","11","NA","11","0","0","0","0","NA","0","NA","11","10/04/18 16:17:57","A template containing a practice and an experimental phase","medium","yes","Experiment.osexp","C:\Users\EEGExp\Desktop","no","mono","no","18","no","white","no","yes","768","legacy","11","11","0","C:/Users/EEGExp/Desktop/subject-4.csv","xpyriment","Kafkaesque Koffka","3.2.5","yes","[ 1718.  1719.  1719.  1720.  1716.  1713.  1712.  1709.  1709.  1710.
  1714.  1715.  1704.  1705.  1704.  1706.  1698.  1702.  1701.  1699.
  1698.  1699.  1692.  1695.  1690.  1696.  1696.  1694.  1692.  1692.
  1691.  1686.  1693.  1691.  1689.  1688.  1687.  1685.  1682.  1684.
  1678.  1675.  1673.  1672.  1673.  1667.  1663.  1664.  1660.  1658.
  1653.  1649.  1652.  1648.  1648.  1650.  1646.  1648.  1649.  1645.
  1648.  1647.  1649.  1648.  1648.  1649.  1649.  1645.  1650.  1642.
  1654.  1648.  1647.  1648.  1650.  1652.  1655.  1657.  1656.  1647.
  1647.  1645.  1648.  1653.  1653.  1664.  1666.  1670.  1670.  1671.
  1676.  1680.  1680.  1688.  1681.  1687.  1690.  1684.  1688.  1688.
  1679.  1674.  1670.  1669.  1665.  1664.  1660.  1654.  1650.  1642.
  1643.  1636.  1631.  1624.  1624.  1617.  1613.  1612.  1610.  1610.
  1602.  1602.  1603.  1603.  1601.  1606.  1601.  1600.  1598.  1598.
  1596.  1590.  1588.  1587.  1582.  1580.  1577.  1571.  1568.  1554.
  1555.  1549.  1552.  1545.  1547.  1544.  1543.  1545.  1544.  1544.
  1544.  1547.  1542.  1538.  1544.  1542.  1538.  1542.  1543.  1545.
  1542.  1543.  1542.  1545.  1546.  1541.  1537.  1537.  1536.  1540.
  1542.  1541.  1538.  1536.  1535.  1534.  1532.  1533.  1531.  1528.
  1526.  1521.  1515.  1516.  1512.  1513.  1510.  1511.  1508.  1509.
  1505.  1505.  1502.  1504.  1496.  1497.  1493.  1490.  1492.  1490.
  1490.  1486.  1487.  1477.  1475.  1479.  1476.  1472.  1469.  1465.
  1462.  1463.  1462.  1461.  1462.  1459.  1462.  1465.  1462.  1463.
  1463.  1466.  1466.  1468.  1466.  1468.  1472.  1468.  1473.  1472.
  1480.  1476.  1481.  1489.  1492.  1497.  1500.  1504.  1506.  1511.
  1516.  1518.  1521.  1529.  1527.  1528.  1532.  1528.  1529.  1528.
  1532.  1528.  1527.  1528.  1526.  1523.  1523.  1517.  1512.  1512.
  1518.  1513.  1506.  1501.  1504.  1502.  1506.  1499.  1496.  1492.
  1490.  1491.  1486.  1487.  1487.  1493.  1491.  1491.  1495.  1503.
  1499.  1499.  1500.  1504.  1510.  1510.  1515.  1517.  1521.  1523.
  1523.  1534.  1536.  1540.  1546.  1555.  1561.  1562.  1562.  1569.
  1574.  1578.  1578.  1578.  1583.  1585.  1587.  1588.  1593.  1597.
  1597.  1600.  1601.  1604.  1603.  1601.  1606.  1607.  1600.  1602.
  1596.  1598.  1597.  1593.  1591.  1591.  1586.  1584.  1584.  1581.
  1580.  1581.  1575.  1575.  1573.  1569.  1564.  1565.  1563.  1563.
  1561.  1558.  1555.  1555.  1551.  1551.  1550.  1540.  1544.  1538.
  1536.  1538.  1532.  1531.  1526.  1528.  1522.  1523.  1519.  1516.
  1511.  1511.  1513.  1505.  1507.  1507.  1511.  1518.  1522.  1529.
  1526.  1523.  1521.  1524.  1521.  1524.  1526.  1524.  1531.  1530.
  1538.  1536.  1543.  1542.  1551.  1552.  1556.  1562.  1561.  1570.
  1574.  1575.  1581.  1591.  1595.  1600.  1608.  1617.  1618.]","NA","seven","0","space","NA","NA","NA","space","NA","799","NA","NA","NA","799","NA","2","legacy","1024","2","48000","-16","experiment","4","even","NA","NA","NA","NA","214772","83360","82569","NA","NA","2541","NA","NA","NA","211261","2596","NA","NA","212767","NA","NA","214773","NA","218774","NA","NA","208545","NA","NA","218772","NA","210896","NA","207368","NA","3395","NA","83360","NA","82569","NA","208545","Extended template","0","0","0","yes","1024"
"undefined","undefined","undefined","undefined","black","yes","xpyriment","legacy","legacy","0","uniform","undefined","undefined","NA","NA","0","NA","NA","12","0","0","0","0","0","0","NA","NA","12","0","0","NA","12","NA","NA","12","NA","12","NA","NA","12","NA","NA","12","NA","12","NA","12","0","0","0","0","NA","0","NA","12","10/04/18 16:17:57","A template containing a practice and an experimental phase","medium","yes","Experiment.osexp","C:\Users\EEGExp\Desktop","no","mono","no","18","no","white","no","yes","768","legacy","12","12","0","C:/Users/EEGExp/Desktop/subject-4.csv","xpyriment","Kafkaesque Koffka","3.2.5","yes","[ 1278.  1279.  1273.  1273.  1273.  1274.  1271.  1266.  1268.  1272.
  1275.  1273.  1282.  1282.  1287.  1285.  1292.  1298.  1299.  1300.
  1309.  1313.  1327.  1328.  1334.  1336.  1350.  1348.  1358.  1359.
  1370.  1378.  1383.  1382.  1389.  1399.  1403.  1410.  1413.  1424.
  1425.  1433.  1440.  1450.  1455.  1459.  1458.  1464.  1473.  1482.
  1481.  1486.  1486.  1494.  1495.  1498.  1500.  1501.  1509.  1508.
  1510.  1512.  1514.  1515.  1525.  1526.  1527.  1529.  1530.  1533.
  1538.  1543.  1547.  1544.  1543.  1546.  1555.  1549.  1549.  1551.
  1557.  1559.  1555.  1559.  1562.  1564.  1563.  1563.  1570.  1565.
  1562.  1565.  1560.  1567.  1568.  1571.  1572.  1575.  1579.  1577.
  1589.  1593.  1601.  1597.  1608.  1607.  1606.  1612.  1614.  1615.
  1622.  1624.  1624.  1632.  1633.  1636.  1638.  1636.  1639.  1640.
  1645.  1640.  1642.  1645.  1649.  1648.  1643.  1642.  1647.  1646.
  1648.  1639.  1610.  1582.  1573.  1555.  1549.  1569.  1573.  1564.
  1561.  1553.  1546.  1513.  1498.     0.     0.     0.     0.     0.
     0.     0.     0.     0.     0.     0.     0.     0.     0.     0.
     0.     0.     0.     0.     0.     0.     0.     0.     0.     0.
     0.     0.     0.     0.     0.     0.     0.     0.     0.     0.
     0.     0.     0.     0.     0.     0.     0.     0.     0.     0.
     0.     0.     0.     0.     0.     0.     0.     0.     0.     0.
     0.     0.     0.     0.     0.     0.     0.     0.     0.     0.
     0.     0.     0.     0.     0.     0.     0.     0.     0.     0.
     0.     0.     0.     0.     0.     0.     0.     0.     0.     0.
     0.     0.     0.     0.     0.     0.     0.     0.     0.     0.
     0.     0.     0.     0.     0.     0.     0.     0.     0.     0.
     0.     0.     0.     0.     0.     0.     0.     0.     0.  1441.
  1458.  1446.  1443.  1460.  1474.  1474.  1478.  1476.  1473.  1469.
  1466.  1461.  1460.  1460.  1459.  1465.  1453.  1461.  1459.  1461.
  1456.  1462.  1465.  1465.  1465.  1468.  1475.  1480.  1481.  1490.
  1496.  1504.  1509.  1517.  1523.  1529.  1544.  1553.  1556.  1568.
  1571.  1581.  1589.  1597.  1607.  1615.  1619.  1624.  1633.  1641.
  1644.  1646.  1649.  1655.  1658.  1666.  1672.  1674.  1679.  1682.
  1684.  1694.  1697.  1705.  1704.  1711.  1715.  1715.  1721.  1728.
  1729.  1735.  1743.  1746.  1749.  1752.  1759.  1763.  1760.  1748.
  1757.  1764.  1767.  1766.  1763.  1771.  1770.  1777.  1776.  1771.
  1773.  1774.  1777.  1775.  1774.  1777.  1780.  1776.  1776.  1781.
  1782.  1780.  1780.  1781.  1780.  1786.  1792.  1783.  1791.  1790.
  1792.  1789.  1793.  1796.  1798.  1809.  1805.  1811.  1813.  1817.
  1822.  1828.  1825.  1833.  1837.  1841.  1841.  1847.  1845.  1850.
  1848.  1852.  1854.  1851.  1857.  1852.  1856.  1858.  1854.]","NA","death","0","space","NA","NA","NA","space","NA","799","NA","NA","NA","799","NA","2","legacy","1024","2","48000","-16","experiment","4","even","NA","NA","NA","NA","226656","83360","82569","NA","NA","2541","NA","NA","NA","223146","2596","NA","NA","224651","NA","NA","226657","NA","230658","NA","NA","219978","NA","NA","230656","NA","222779","NA","218788","NA","3395","NA","83360","NA","82569","NA","219978","Extended template","0","0","0","yes","1024"
"undefined","undefined","undefined","undefined","black","yes","xpyriment","legacy","legacy","0","uniform","undefined","undefined","NA","NA","0","NA","NA","13","0","0","0","0","0","0","NA","NA","13","0","0","NA","13","NA","NA","13","NA","13","NA","NA","13","NA","NA","13","NA","13","NA","13","0","0","0","0","NA","0","NA","13","10/04/18 16:17:57","A template containing a practice and an experimental phase","hard","yes","Experiment.osexp","C:\Users\EEGExp\Desktop","no","mono","no","18","no","white","no","yes","768","legacy","13","13","0","C:/Users/EEGExp/Desktop/subject-4.csv","xpyriment","Kafkaesque Koffka","3.2.5","yes","[ 1355.  1360.  1360.  1362.  1360.  1360.  1355.  1355.  1354.  1363.
  1359.  1358.  1358.  1355.  1365.  1364.  1364.  1361.  1363.  1362.
  1363.  1362.  1356.  1359.  1362.  1359.  1356.  1360.  1361.  1362.
  1361.  1364.  1370.  1371.  1376.  1370.  1380.  1379.  1386.  1392.
  1398.  1403.  1409.  1414.  1426.  1426.  1435.  1438.  1455.  1453.
  1460.  1463.  1469.  1471.  1477.  1478.  1484.  1487.  1488.  1495.
  1495.  1498.  1500.  1504.  1508.  1512.  1514.  1516.  1517.  1521.
  1524.  1522.  1530.  1533.  1533.  1539.  1542.  1541.  1546.  1547.
  1548.  1551.  1559.  1560.  1564.  1567.  1568.  1575.  1578.  1581.
  1587.  1582.  1594.  1593.  1597.  1602.  1603.  1601.  1608.  1608.
  1604.  1608.  1611.  1613.  1610.  1610.  1610.  1616.  1617.  1618.
  1620.  1622.  1625.  1629.  1633.  1634.  1638.  1642.  1647.  1646.
  1652.  1653.  1655.  1664.  1664.  1669.  1673.  1683.  1679.  1683.
  1682.  1690.  1689.  1695.  1703.  1700.  1701.  1710.  1709.  1713.
  1717.  1717.  1719.  1722.  1725.  1724.  1730.  1724.  1737.  1739.
  1732.  1735.  1737.  1740.  1744.  1742.  1746.  1743.  1743.  1743.
  1745.  1748.  1746.  1748.  1745.  1748.  1747.  1742.  1751.  1741.
  1747.  1737.  1742.  1748.  1743.  1743.  1744.  1745.  1747.  1745.
  1746.  1752.  1753.  1752.  1760.  1756.  1765.  1767.  1770.  1779.
  1781.  1786.  1789.  1797.  1797.  1799.  1806.  1816.  1821.  1820.
  1823.  1829.  1836.  1842.  1841.  1848.  1854.  1855.  1859.  1861.
  1868.  1864.  1870.  1876.  1878.  1876.  1878.  1876.  1891.  1885.
  1887.  1885.  1885.  1891.  1889.  1884.  1890.  1889.  1894.  1899.
  1903.  1900.  1903.  1911.  1909.  1914.  1915.  1925.  1923.  1929.
  1934.  1934.  1946.  1947.  1940.  1950.  1952.  1954.  1959.  1960.
  1962.  1964.  1965.  1969.  1970.  1972.  1978.  1979.  1983.  1981.
  1987.  1991.  1990.  1994.  1993.  1989.  1992.  1991.  1991.  1982.
  1984.  1974.  1974.  1972.  1959.  1958.  1951.  1949.  1943.  1944.
  1937.  1938.  1939.  1925.  1924.  1925.  1920.  1916.  1913.  1915.
  1912.  1907.  1906.  1904.  1897.  1893.  1893.  1888.  1887.  1888.
  1893.  1892.  1889.  1893.  1895.  1893.  1898.  1897.  1901.  1901.
  1907.  1909.  1914.  1914.  1921.  1922.  1925.  1930.  1935.  1934.
  1930.  1940.  1943.  1945.  1949.  1949.  1953.  1952.  1954.  1957.
  1975.  1976.  1981.  1985.  1984.  1980.  1978.  1979.  1983.  1990.
  1995.  1989.  1993.  1988.  1990.  1992.  1995.  2004.  2004.  2000.
  2000.  2003.  2003.  2008.  2005.  2007.  2009.  2011.  2016.  2018.
  2018.  2026.  2023.  2025.  2025.  2032.  2034.  2034.  2036.  2038.
  2045.  2044.  2047.  2052.  2054.  2049.  2054.  2051.  2048.  2050.
  2054.  2048.  2045.  2041.  2039.  2041.  2030.  2031.  2028.  2026.
  2021.  2025.  2017.  2009.  2008.  2012.  2006.  2001.  1997.]","NA","nuclear","0","space","NA","NA","NA","space","NA","799","NA","NA","NA","799","NA","2","legacy","1024","2","48000","-16","experiment","4","even","NA","NA","NA","NA","237118","83360","82569","NA","NA","2541","NA","NA","NA","233609","2596","NA","NA","235114","NA","NA","237120","NA","241121","NA","NA","231851","NA","NA","241119","NA","233243","NA","230678","NA","3395","NA","83360","NA","82569","NA","231851","Extended template","0","0","0","yes","1024"
"undefined","undefined","undefined","undefined","black","yes","xpyriment","legacy","legacy","0","uniform","undefined","undefined","NA","NA","0","NA","NA","14","0","0","0","0","0","0","NA","NA","14","0","0","NA","14","NA","NA","14","NA","14","NA","NA","14","NA","NA","14","NA","14","NA","14","0","0","0","0","NA","0","NA","14","10/04/18 16:17:57","A template containing a practice and an experimental phase","hard","yes","Experiment.osexp","C:\Users\EEGExp\Desktop","no","mono","no","18","no","white","no","yes","768","legacy","14","14","0","C:/Users/EEGExp/Desktop/subject-4.csv","xpyriment","Kafkaesque Koffka","3.2.5","yes","[ 1379.  1377.  1382.  1384.  1387.  1389.  1389.  1389.  1391.  1393.
  1392.  1392.  1394.  1399.  1400.  1400.  1406.  1399.  1403.  1415.
  1415.  1415.  1418.  1416.  1420.  1425.  1420.  1423.  1427.  1423.
  1429.  1433.  1438.  1442.  1440.  1439.  1440.  1450.  1456.  1459.
  1456.  1456.  1468.  1465.  1466.  1469.  1476.  1476.  1481.  1480.
  1489.  1496.  1493.  1499.  1509.  1513.  1515.  1525.  1525.  1519.
  1528.  1533.  1537.  1538.  1541.  1545.  1546.  1552.  1557.  1561.
  1563.  1555.  1562.  1566.  1577.  1580.  1587.  1587.  1595.  1597.
  1602.  1607.  1608.  1612.  1611.  1620.  1620.  1621.  1625.  1622.
  1625.  1623.  1622.  1620.  1618.  1617.  1617.  1612.  1616.  1607.
  1612.  1605.  1605.  1604.  1601.  1603.  1604.  1600.  1601.  1601.
  1603.  1601.  1600.  1603.  1600.  1604.  1605.  1608.  1604.  1604.
  1606.  1610.  1615.  1612.  1614.  1618.  1619.  1626.  1620.  1629.
  1627.  1635.  1637.  1640.  1641.  1642.  1649.  1648.  1652.  1658.
  1665.  1662.  1662.  1663.  1669.  1672.  1671.  1672.  1668.  1675.
  1669.  1675.  1674.  1674.  1681.  1674.  1677.  1676.  1676.  1679.
  1678.  1682.  1680.  1681.  1678.  1680.  1676.  1678.  1678.  1678.
  1673.  1669.  1674.  1675.  1675.  1666.  1674.  1673.  1669.  1678.
  1679.  1677.  1676.  1673.  1683.  1679.  1685.  1684.  1687.  1685.
  1690.  1689.  1696.  1696.  1703.  1699.  1703.  1709.  1712.  1716.
  1719.  1720.  1727.  1730.  1737.  1736.  1738.  1741.  1749.  1752.
  1753.  1755.  1753.  1757.  1761.  1761.  1765.  1759.  1765.  1758.
  1765.  1763.  1758.  1765.  1765.  1762.  1764.  1758.  1760.  1758.
  1753.  1758.  1765.  1762.  1762.  1759.  1765.  1760.  1762.  1763.
  1767.  1764.  1769.  1771.  1765.  1769.  1772.  1773.  1774.  1774.
  1771.  1780.  1777.  1782.  1786.  1791.  1786.  1790.  1795.  1797.
  1795.  1803.  1806.  1814.  1809.  1818.  1822.  1830.  1829.  1838.
  1843.  1843.  1840.  1849.  1848.  1852.  1855.  1855.  1855.  1863.
  1862.  1865.  1859.  1864.  1866.  1871.  1865.  1865.  1867.  1863.
  1863.  1866.  1865.  1864.  1866.  1862.  1863.  1857.  1856.  1856.
  1852.  1847.  1844.  1835.  1833.  1818.  1813.  1810.  1803.  1795.
  1784.  1781.  1783.  1771.  1763.  1764.  1761.  1757.  1758.  1759.
  1758.  1756.  1761.  1757.  1760.  1758.  1760.  1765.  1764.  1767.
  1768.  1770.  1770.  1776.  1780.  1775.  1779.  1782.  1785.  1786.
  1787.  1796.  1791.  1795.  1800.  1800.  1801.  1804.  1806.  1810.
  1816.  1814.  1817.  1817.  1821.  1813.  1816.  1808.  1802.  1802.
  1803.  1798.  1792.  1790.  1789.  1786.  1777.  1773.  1773.  1769.
  1764.  1765.  1761.  1756.  1756.  1755.  1754.  1752.  1750.  1750.
  1755.  1751.  1754.  1753.  1752.  1758.  1758.  1757.  1758.  1757.
  1760.  1760.  1754.  1756.  1756.  1758.  1754.  1753.  1753.]","NA","exactly","0","space","NA","NA","NA","space","NA","799","NA","NA","NA","799","NA","2","legacy","1024","2","48000","-16","experiment","4","even","NA","NA","NA","NA","248080","83360","82569","NA","NA","2541","NA","NA","NA","244569","2596","NA","NA","246075","NA","NA","248081","NA","252082","NA","NA","242331","NA","NA","252080","NA","244201","NA","241145","NA","3395","NA","83360","NA","82569","NA","242330","Extended template","0","0","0","yes","1024"
"undefined","undefined","undefined","undefined","black","yes","xpyriment","legacy","legacy","0","uniform","undefined","undefined","NA","NA","0","0","NA","14","0","0","0","0","0","0","NA","0","14","0","0","NA","14","NA","0","14","0","14","NA","0","14","0","NA","14","0","14","0","14","0","0","0","0","NA","0","0","14","10/04/18 16:17:57","A template containing a practice and an experimental phase","medium","yes","Experiment.osexp","C:\Users\EEGExp\Desktop","no","mono","no","18","no","white","no","yes","768","legacy","0","14","0","C:/Users/EEGExp/Desktop/subject-4.csv","xpyriment","Kafkaesque Koffka","3.2.5","yes","[ 1971.  1968.  1972.  1979.  1977.  1974.  1976.  1982.  1990.  1989.
  1996.  2000.  2000.  2002.  2009.  2010.  2013.  2021.  2013.  2014.
  2011.  2004.  1998.  1998.  1992.  1987.  1980.  1975.  1965.  1970.
  1965.  1960.  1960.  1956.  1954.  1949.  1948.  1950.  1946.  1941.
  1937.  1933.  1930.  1925.  1919.  1920.  1915.  1908.  1909.  1898.
  1898.  1892.  1882.  1873.  1872.  1869.  1862.  1859.  1849.  1842.
  1839.  1835.  1833.  1826.  1828.  1825.  1825.  1816.  1819.  1816.
  1816.  1818.  1823.  1815.  1820.  1820.  1821.  1820.  1822.  1827.
  1825.  1826.  1830.  1825.  1831.  1834.  1831.  1831.  1829.  1834.
  1827.  1827.  1832.  1829.  1827.  1828.  1826.  1825.  1819.  1818.
  1817.  1816.  1809.  1807.  1804.  1803.  1799.  1795.  1791.  1788.
  1783.  1779.  1773.  1771.  1770.  1769.  1756.  1754.  1750.  1744.
  1742.  1738.  1734.  1730.  1724.  1721.  1721.  1721.  1718.  1711.
  1709.  1705.  1697.  1692.  1692.  1688.  1686.  1688.  1678.  1681.
  1682.  1679.  1676.  1676.  1674.  1669.  1669.  1670.  1668.  1672.
  1673.  1672.  1677.  1676.  1676.  1677.  1679.  1684.  1684.  1688.
  1689.  1693.  1698.  1696.  1700.  1703.  1706.  1703.  1701.  1702.
  1701.  1707.  1705.  1703.  1701.  1695.  1696.  1693.  1687.  1687.
  1681.  1681.  1677.  1672.  1665.  1663.  1662.  1662.  1655.  1657.
  1647.  1647.  1642.  1635.  1633.  1637.  1636.  1628.  1637.  1629.
  1635.  1634.  1633.  1636.  1631.  1628.  1623.  1631.  1633.  1631.
  1633.  1641.  1643.  1647.  1645.  1649.  1648.  1649.  1656.  1656.
  1660.  1668.  1668.  1672.  1676.  1686.  1687.  1689.  1692.  1695.
  1704.  1712.  1718.  1716.  1723.  1733.  1747.  1747.  1748.  1758.
  1766.  1766.  1732.  1366.     0.     0.     0.     0.     0.     0.
     0.     0.     0.     0.  1352.  1659.  1774.  1782.  1772.  1775.
  1765.  1765.  1762.  1761.  1755.  1751.  1747.  1742.  1738.  1737.
  1735.  1728.  1727.  1731.  1732.  1730.  1730.  1730.  1730.  1730.
  1732.  1729.  1721.  1722.  1712.  1710.  1701.  1693.  1687.  1676.
  1670.  1665.  1660.  1645.  1648.  1635.  1630.  1622.  1612.  1605.
  1609.  1597.  1591.  1576.  1568.  1563.  1558.  1548.  1536.  1532.
  1521.  1519.  1513.  1508.  1503.  1498.  1499.  1490.  1493.  1492.
  1495.  1486.  1485.  1496.  1494.  1494.  1501.  1498.  1498.  1505.
  1509.  1511.  1510.  1521.  1527.  1532.  1529.  1533.  1540.  1543.
  1547.  1554.  1558.  1567.  1563.  1570.  1571.  1570.  1577.  1572.
  1576.  1572.  1574.  1575.  1577.  1578.  1572.  1578.  1579.  1576.
  1561.  1563.  1562.  1566.  1562.  1564.  1565.  1563.  1560.  1565.
  1560.  1560.  1561.  1561.  1560.  1555.  1552.  1561.  1556.  1550.
  1548.  1554.  1555.  1563.  1566.  1566.  1563.  1567.  1567.  1568.
  1572.  1564.  1575.  1573.  1576.  1578.  1585.  1592.  1590.  1588.
  1595.  1598.  1603.  1617.  1638.  1663.  1386.     0.     0.     0.
     0.     0.     0.     0.     0.     0.     0.     0.   680.  1481.
  1644.  1676.  1674.  1683.  1680.  1681.  1675.  1670.  1667.  1668.
  1668.  1664.  1660.  1659.  1655.  1651.  1652.  1652.  1654.  1650.
  1654.  1653.  1656.  1659.  1649.  1660.  1655.  1650.  1649.  1645.
  1642.  1632.  1631.  1624.  1620.  1619.  1611.  1614.  1603.  1600.
  1595.  1587.  1591.  1584.  1579.  1577.  1570.  1565.  1559.  1555.
  1554.  1546.  1540.  1534.  1530.  1530.  1525.  1511.  1513.  1506.
  1510.  1503.  1496.  1494.  1491.  1489.  1485.  1484.  1482.  1487.
  1483.  1485.  1480.  1489.  1488.  1483.  1488.  1494.  1488.]","NA","2x = 6","0","space","NA","NA","NA","space","NA","799","NA","NA","NA","799","NA","2","legacy","1024","2","48000","-16","experiment","4","even","NA","258720","262640","NA","248080","83360","82569","NA","NA","2541","NA","NA","261135","244569","2596","NA","NA","246075","NA","262641","248081","267962","252082","NA","259204","242331","267640","NA","252080","260776","244201","NA","252097","252654","3395","NA","83360","NA","82569","259204","242330","Extended template","0","0","0","yes","1024"
"undefined","undefined","undefined","undefined","black","yes","xpyriment","legacy","legacy","0","uniform","undefined","undefined","NA","NA","0","1","NA","14","0","0","0","0","0","0","NA","1","14","0","0","NA","14","NA","1","14","1","14","NA","1","14","1","NA","14","1","14","1","14","0","0","0","0","NA","0","1","14","10/04/18 16:17:57","A template containing a practice and an experimental phase","hard","yes","Experiment.osexp","C:\Users\EEGExp\Desktop","no","mono","no","18","no","white","no","yes","768","legacy","1","14","0","C:/Users/EEGExp/Desktop/subject-4.csv","xpyriment","Kafkaesque Koffka","3.2.5","yes","[ 1632.  1633.  1635.  1638.  1641.  1640.  1639.  1642.  1647.  1648.
  1645.  1647.  1644.  1651.  1653.  1646.  1650.  1651.  1655.  1652.
  1652.  1648.  1649.  1650.  1650.  1651.  1647.  1646.  1646.  1653.
  1647.  1656.  1656.  1653.  1655.  1651.  1653.  1660.  1659.  1663.
  1664.  1666.  1664.  1662.  1666.  1671.  1675.  1676.  1673.  1674.
  1676.  1680.  1679.  1679.  1679.  1684.  1680.  1678.  1675.  1674.
  1671.  1672.  1677.  1674.  1666.  1665.  1662.  1667.  1661.  1664.
  1659.  1658.  1659.  1658.  1657.  1660.  1658.  1657.  1657.  1655.
  1653.  1656.  1653.  1657.  1657.  1657.  1656.  1656.  1648.  1656.
  1652.  1657.  1663.  1665.  1654.  1654.  1652.  1649.  1648.  1644.
  1644.  1644.  1638.  1632.  1633.  1629.  1626.  1617.  1618.  1610.
  1610.  1608.  1608.  1605.  1598.  1598.  1600.  1598.  1599.  1600.
  1599.  1605.  1598.  1598.  1599.  1603.  1610.  1613.  1612.  1610.
  1610.  1608.  1616.  1614.  1614.  1616.  1617.  1617.  1619.  1618.
  1622.  1627.  1623.  1626.  1619.  1627.  1625.  1630.  1625.  1627.
  1625.  1628.  1634.  1632.  1636.  1634.  1639.  1648.  1644.  1645.
  1648.  1650.  1652.  1652.  1653.  1661.  1662.  1664.  1662.  1663.
  1665.  1667.  1668.  1667.  1660.  1662.  1660.  1660.  1660.  1662.
  1663.  1664.  1665.  1661.  1665.  1664.  1664.  1664.  1662.  1660.
  1656.  1657.  1657.  1655.  1651.  1649.  1643.  1641.  1645.  1640.
  1639.  1637.  1628.  1621.  1619.  1621.  1620.  1614.  1613.  1614.
  1608.  1605.  1605.  1603.  1605.  1601.  1602.  1598.  1608.  1607.
  1604.  1605.  1605.  1600.  1600.  1601.  1603.  1602.  1603.  1600.
  1602.  1601.  1599.  1603.  1605.  1597.  1599.  1603.  1600.  1601.
  1601.  1602.  1602.  1600.  1601.  1601.  1601.  1600.  1603.  1597.
  1602.  1600.  1600.  1599.  1592.  1589.  1592.  1593.  1593.  1596.
  1592.  1594.  1591.  1584.  1589.  1588.  1586.  1587.  1589.  1587.
  1586.  1587.  1581.  1583.  1582.  1580.  1580.  1577.  1574.  1574.
  1570.  1570.  1572.  1570.  1569.  1564.  1563.  1572.  1573.  1571.
  1567.  1578.  1576.  1577.  1577.  1579.  1580.  1577.  1575.  1581.
  1576.  1577.  1577.  1576.  1577.  1575.  1575.  1568.  1565.  1564.
  1563.  1558.  1557.  1559.  1554.  1555.  1555.  1548.  1552.  1547.
  1542.  1540.  1542.  1538.  1537.  1535.  1529.  1529.  1529.  1525.
  1532.  1528.  1528.  1530.  1529.  1532.  1530.  1529.  1535.  1530.
  1531.  1526.  1529.  1531.  1530.  1529.  1526.  1527.  1527.  1527.
  1526.  1525.  1523.  1521.  1520.  1519.  1520.  1520.  1525.  1525.
  1526.  1528.  1529.  1530.  1535.  1539.  1537.  1538.  1544.  1547.
  1544.  1550.  1549.  1553.  1553.  1550.  1552.  1549.  1550.  1549.
  1545.  1547.  1550.  1544.  1545.  1548.  1544.  1546.  1544.  1541.
  1541.  1540.  1541.  1541.  1545.  1542.  1541.  1540.  1539.  1537.
  1545.  1542.  1543.  1541.  1539.  1543.  1544.  1543.  1549.  1551.
  1546.  1552.  1553.  1552.  1556.  1554.  1559.  1563.  1564.  1564.
  1569.  1572.  1572.  1572.  1577.  1581.  1585.  1588.  1591.  1593.
  1597.  1596.  1603.  1608.  1610.  1610.  1613.  1612.  1612.  1616.
  1616.  1619.  1625.  1621.  1625.  1631.  1635.  1640.  1640.  1645.
  1649.  1650.  1655.  1661.  1664.  1664.  1671.  1669.  1673.  1670.
  1668.  1668.  1667.  1666.  1661.  1660.  1655.  1655.  1647.  1646.
  1644.  1646.  1646.  1633.  1629.  1635.  1624.  1618.  1617.  1615.
  1614.  1614.  1610.  1610.  1608.  1605.  1607.  1603.  1602.  1603.
  1598.  1600.  1595.  1596.  1593.  1594.  1588.  1589.  1590.]","NA","3x - 5 = 10","0","space","NA","NA","NA","space","NA","799","NA","NA","NA","799","NA","2","legacy","1024","2","48000","-16","experiment","4","even","NA","258720","272489","NA","248080","83360","82569","NA","NA","2541","NA","NA","270984","244569","2596","NA","NA","246075","NA","272490","248081","277811","252082","NA","269091","242331","277489","NA","252080","270632","244201","267982","252097","252654","3395","NA","83360","NA","82569","269091","242330","Extended template","0","0","0","yes","1024"
"undefined","undefined","undefined","undefined","black","yes","xpyriment","legacy","legacy","0","uniform","undefined","undefined","NA","NA","0","2","NA","14","0","0","0","0","0","0","NA","2","14","0","0","NA","14","NA","2","14","2","14","NA","2","14","2","NA","14","2","14","2","14","0","0","0","0","NA","0","2","14","10/04/18 16:17:57","A template containing a practice and an experimental phase","medium","yes","Experiment.osexp","C:\Users\EEGExp\Desktop","no","mono","no","18","no","white","no","yes","768","legacy","2","14","0","C:/Users/EEGExp/Desktop/subject-4.csv","xpyriment","Kafkaesque Koffka","3.2.5","yes","[ 1722.  1724.  1726.  1730.  1726.  1721.  1723.  1723.  1718.  1725.
  1725.  1719.  1723.  1715.  1716.  1716.  1717.  1718.  1717.  1721.
  1718.  1721.  1722.  1724.  1733.  1733.  1735.  1743.  1744.  1752.
  1755.  1759.  1760.  1766.  1774.  1776.  1778.  1779.  1784.  1790.
  1796.  1792.  1791.  1793.  1794.  1793.  1785.  1789.  1779.  1776.
  1777.  1773.  1771.  1765.  1753.  1752.  1746.  1742.  1736.  1729.
  1722.  1716.  1717.  1707.  1707.  1709.  1705.  1704.  1697.  1698.
  1693.  1692.  1692.  1691.  1691.  1686.  1684.  1680.  1678.  1673.
  1671.  1676.  1673.  1664.  1670.  1666.  1663.  1657.  1658.  1652.
  1650.  1643.  1642.  1640.  1636.  1640.  1640.  1644.  1645.  1641.
  1604.   695.     0.     0.     0.     0.     0.     0.     0.     0.
     0.     0.     0.   833.  1485.  1638.  1643.  1643.  1642.  1632.
  1627.  1626.  1623.  1622.  1620.  1620.  1624.  1627.  1629.  1626.
  1626.  1633.  1634.  1631.  1637.  1631.  1632.  1632.  1630.  1625.
  1619.  1613.  1603.  1591.  1585.  1573.  1558.  1542.  1540.  1535.
  1521.  1512.  1502.  1494.  1487.  1482.  1475.  1472.  1466.  1464.
  1465.  1462.  1459.  1460.  1456.  1455.  1453.  1445.  1446.  1445.
  1444.  1441.  1440.  1439.  1433.  1434.  1435.  1436.  1436.  1435.
  1445.  1445.  1443.  1448.  1459.  1456.  1463.  1464.  1469.  1476.
  1477.  1480.  1487.  1501.  1502.  1502.  1506.  1510.  1511.  1514.
  1514.  1518.  1515.  1516.  1516.  1519.  1518.  1518.  1517.  1520.
  1514.  1518.  1519.  1518.  1523.  1521.  1528.  1527.  1526.  1531.
  1533.  1534.  1535.  1533.  1541.  1543.  1546.  1546.  1550.  1555.
  1565.  1572.  1590.  1556.  1154.     0.     0.     0.     0.     0.
   681.  1214.  1480.  1540.  1546.  1577.  1574.  1572.  1569.  1570.
  1570.  1564.  1562.  1561.  1563.  1568.  1583.  1591.  1488.     0.
     0.     0.     0.     0.     0.     0.     0.     0.   830.  1539.
  1575.  1582.  1590.  1586.  1584.  1573.  1567.  1567.  1568.  1564.
  1564.  1563.  1568.  1566.  1566.  1569.  1567.  1573.  1572.  1569.
  1579.  1575.  1574.  1569.  1567.  1568.  1559.  1554.  1548.  1543.
  1526.  1522.  1510.  1501.  1498.  1490.  1479.  1483.  1470.  1468.
  1464.  1463.  1454.  1455.  1453.  1449.  1449.  1459.  1455.  1455.
  1449.  1453.  1454.  1457.  1458.  1460.  1461.  1467.  1466.  1470.
  1473.  1474.  1476.  1476.  1482.  1485.  1491.  1492.  1494.  1494.
  1497.  1502.  1505.  1504.  1508.  1506.  1511.  1514.  1518.  1525.
  1528.  1529.  1534.  1539.  1536.  1547.  1549.  1560.  1558.  1567.
  1567.  1572.  1575.  1578.  1589.  1588.  1588.  1598.  1600.  1609.
  1611.  1613.  1612.  1616.  1619.  1624.  1628.  1627.  1632.  1633.
  1633.  1631.  1632.  1633.  1635.  1642.  1634.  1637.  1639.  1647.
  1647.  1650.  1650.  1655.  1655.  1663.  1666.  1673.  1672.  1675.
  1680.  1686.  1682.  1683.  1684.  1683.  1683.  1693.  1683.  1685.
  1686.  1689.  1683.  1688.  1684.  1683.  1683.  1682.  1683.  1682.
  1682.  1683.  1677.  1684.  1685.  1684.  1681.  1682.  1683.  1690.
  1690.  1689.  1691.  1688.  1694.  1692.  1692.  1692.  1689.  1691.
  1688.  1691.  1685.  1688.  1685.  1685.  1689.  1688.  1685.  1685.
  1685.  1689.  1687.  1683.  1687.  1691.  1691.  1692.  1689.  1689.
  1695.  1697.  1693.  1691.  1698.  1701.  1694.  1696.  1698.  1701.
  1702.  1702.  1706.  1714.  1718.  1720.  1724.  1729.  1730.  1742.
  1741.  1740.  1752.  1752.  1762.  1776.  1775.  1777.  1782.  1791.
  1798.  1799.  1803.  1810.  1817.  1815.  1823.  1827.  1828.]","NA","6x = 12","0","space","NA","NA","NA","space","NA","799","NA","NA","NA","799","NA","2","legacy","1024","2","48000","-16","experiment","4","even","NA","258720","283601","NA","248080","83360","82569","NA","NA","2541","NA","NA","282096","244569","2596","NA","NA","246075","NA","283602","248081","288923","252082","NA","278874","242331","288601","NA","252080","281735","244201","277833","252097","252654","3395","NA","83360","NA","82569","278873","242330","Extended template","0","0","0","yes","1024"
"undefined","undefined","undefined","undefined","black","yes","xpyriment","legacy","legacy","0","uniform","undefined","undefined","NA","NA","0","3","NA","14","0","0","0","0","0","0","NA","3","14","0","0","NA","14","NA","3","14","3","14","NA","3","14","3","NA","14","3","14","3","14","0","0","0","0","NA","0","3","14","10/04/18 16:17:57","A template containing a practice and an experimental phase","hard","yes","Experiment.osexp","C:\Users\EEGExp\Desktop","no","mono","no","18","no","white","no","yes","768","legacy","3","14","0","C:/Users/EEGExp/Desktop/subject-4.csv","xpyriment","Kafkaesque Koffka","3.2.5","yes","[ 1705.  1712.  1712.  1716.  1717.  1719.  1723.  1722.  1723.  1727.
  1720.  1728.  1723.  1724.  1722.  1721.  1722.  1715.  1716.  1724.
  1716.  1716.  1714.  1719.  1714.  1713.  1712.  1715.  1715.  1718.
  1720.  1717.  1716.  1718.  1724.  1735.  1729.  1728.  1722.  1727.
  1737.  1735.  1736.  1737.  1740.  1741.  1740.  1746.  1745.  1755.
  1749.  1754.  1748.  1754.  1752.  1753.  1759.  1757.  1765.  1763.
  1770.  1766.  1765.  1764.  1767.  1765.  1762.  1764.  1763.  1773.
  1765.  1760.  1760.  1760.  1757.  1758.  1751.  1756.  1749.  1746.
  1745.  1747.  1748.  1743.  1745.  1745.  1736.  1735.  1738.  1731.
  1727.  1728.  1726.  1718.  1713.  1712.  1706.  1705.  1700.  1694.
  1689.  1684.  1681.  1681.  1678.  1674.  1668.  1667.  1667.  1663.
  1661.  1662.  1666.  1663.  1664.  1662.  1665.  1667.  1670.  1670.
  1672.  1672.  1673.  1678.  1680.  1677.  1677.  1680.  1685.  1684.
  1691.  1691.  1685.  1691.  1695.  1697.  1696.  1701.  1700.  1700.
  1707.  1708.  1708.  1716.  1720.  1723.  1722.  1726.  1734.  1739.
  1734.  1741.  1745.  1744.  1745.  1749.  1757.  1749.  1749.  1748.
  1753.  1752.  1750.  1752.  1750.  1750.  1748.  1744.  1744.  1744.
  1741.  1744.  1742.  1745.  1745.  1744.  1744.  1743.  1745.  1745.
  1749.  1754.  1754.  1757.  1756.  1755.  1762.  1760.  1762.  1766.
  1770.  1769.  1774.  1776.  1779.  1781.  1782.  1783.  1789.  1788.
  1793.  1795.  1797.  1795.  1798.  1799.  1801.  1799.  1802.  1801.
  1803.  1804.  1807.  1810.  1811.  1811.  1818.  1820.  1818.  1821.
  1824.  1822.  1826.  1827.  1830.  1838.  1835.  1837.  1836.  1835.
  1837.  1835.  1839.  1831.  1828.  1824.  1828.  1828.  1820.  1814.
  1815.  1808.  1804.  1796.  1798.  1792.  1788.  1785.  1785.  1787.
  1782.  1781.  1781.  1779.  1773.  1770.  1770.  1766.  1764.  1782.
  1787.  1788.  1759.  1758.  1761.  1769.  1774.  1770.  1766.  1766.
  1768.  1771.  1765.  1763.  1766.  1763.  1765.  1765.  1761.  1754.
  1756.  1748.  1746.  1739.  1738.  1734.  1730.  1727.  1721.  1723.
  1712.  1714.  1713.  1719.  1716.  1715.  1718.  1717.  1714.  1721.
  1721.  1721.  1724.  1731.  1731.  1725.  1721.  1725.  1720.  1725.
  1718.  1721.  1720.  1715.  1716.  1711.  1709.  1708.  1709.  1702.
  1697.  1695.  1693.  1692.  1693.  1689.  1689.  1689.  1685.  1686.
  1686.  1685.  1684.  1685.  1687.  1687.  1689.  1687.  1684.  1685.
  1684.  1687.  1686.  1681.  1681.  1679.  1676.  1671.  1675.  1672.
  1669.  1669.  1663.  1666.  1669.  1665.  1661.  1662.  1662.  1664.
  1663.  1662.  1656.  1659.  1659.  1659.  1661.  1656.  1656.  1654.
  1660.  1662.  1661.  1663.  1663.  1663.  1664.  1666.  1667.  1667.
  1667.  1669.  1669.  1667.  1670.  1671.  1671.  1670.  1671.  1668.
  1664.  1662.  1660.  1657.  1657.  1652.  1656.  1652.  1652.  1653.
  1651.  1654.  1659.  1656.  1655.  1651.  1654.  1654.  1653.  1655.
  1654.  1651.  1650.  1649.  1642.  1644.  1641.  1638.  1644.  1635.
  1633.  1633.  1628.  1629.  1626.  1620.  1622.  1618.  1617.  1616.
  1616.  1615.  1615.  1614.  1613.  1607.  1609.  1611.  1612.  1617.
  1622.  1631.  1626.  1625.  1591.  1297.   614.     0.     0.     0.
     0.     0.     0.     0.     0.     0.     0.   703.  1306.  1547.
  1526.  1518.  1502.  1484.  1468.  1456.  1439.  1430.  1422.  1414.
  1406.  1406.  1398.  1398.  1401.  1416.  1414.  1414.  1416.  1430.
  1427.  1444.  1451.  1465.  1472.  1482.  1494.  1507.  1507.  1526.
  1532.  1550.  1554.  1569.  1581.  1590.  1597.  1607.  1610.]","NA","7x - 3 = 18","0","space","NA","NA","NA","space","NA","799","NA","NA","NA","799","NA","2","legacy","1024","2","48000","-16","experiment","4","even","NA","258720","296060","NA","248080","83360","82569","NA","NA","2541","NA","NA","294555","244569","2596","NA","NA","246075","NA","296061","248081","301382","252082","NA","289983","242331","301060","NA","252080","294194","244201","288939","252097","252654","3395","NA","83360","NA","82569","289983","242330","Extended template","0","0","0","yes","1024"
"undefined","undefined","undefined","undefined","black","yes","xpyriment","legacy","legacy","0","uniform","undefined","undefined","NA","NA","0","4","NA","14","0","0","0","0","0","0","NA","4","14","0","0","NA","14","NA","4","14","4","14","NA","4","14","4","NA","14","4","14","4","14","0","0","0","0","NA","0","4","14","10/04/18 16:17:57","A template containing a practice and an experimental phase","easy","yes","Experiment.osexp","C:\Users\EEGExp\Desktop","no","mono","no","18","no","white","no","yes","768","legacy","4","14","0","C:/Users/EEGExp/Desktop/subject-4.csv","xpyriment","Kafkaesque Koffka","3.2.5","yes","[ 1793.  1795.  1796.  1806.  1805.  1806.  1814.  1820.  1819.  1826.
  1831.  1828.  1829.  1829.  1830.  1837.  1831.  1835.  1825.  1827.
  1828.  1823.  1821.  1820.  1820.  1818.  1817.  1811.  1817.  1816.
  1818.  1819.  1817.  1820.  1820.  1816.  1815.  1816.  1820.  1823.
  1823.  1825.  1831.  1829.  1840.  1845.  1839.  1841.  1843.  1840.
  1841.  1838.  1842.  1831.  1835.  1829.  1830.  1825.  1823.  1822.
  1816.  1809.  1812.  1808.  1806.  1801.  1795.  1795.  1790.  1790.
  1790.  1786.  1782.  1782.  1783.  1781.  1780.  1780.  1776.  1778.
  1774.  1772.  1772.  1778.  1773.  1771.  1772.  1775.  1773.  1774.
  1770.  1772.  1774.  1768.  1771.  1760.  1767.  1766.  1763.  1762.
  1762.  1759.  1758.  1761.  1757.  1759.  1757.  1759.  1757.  1761.
  1763.  1762.  1766.  1762.  1765.  1768.  1767.  1770.  1770.  1773.
  1773.  1776.  1778.  1775.  1776.  1783.  1781.  1782.  1776.  1776.
  1782.  1778.  1778.  1774.  1776.  1776.  1776.  1779.  1776.  1775.
  1775.  1778.  1781.  1778.  1784.  1779.  1791.  1785.  1786.  1789.
  1790.  1792.  1798.  1798.  1802.  1805.  1809.  1813.  1817.  1819.
  1818.  1830.  1824.  1828.  1833.  1835.  1842.  1847.  1856.  1853.
  1861.  1861.  1869.  1869.  1875.  1882.  1883.  1891.  1897.  1896.
  1898.  1902.  1907.  1907.  1909.  1910.  1909.  1908.  1909.  1914.
  1912.  1918.  1914.  1916.  1917.  1919.  1918.  1918.  1923.  1926.
  1926.  1928.  1929.  1928.  1932.  1935.  1936.  1930.  1934.  1934.
  1935.  1933.  1928.  1938.  1938.  1938.  1940.  1943.  1944.  1943.
  1947.  1946.  1952.  1952.  1954.  1956.  1957.  1954.  1958.  1957.
  1958.  1960.  1959.  1967.  1960.  1966.  1963.  1968.  1968.  1971.
  1971.  1976.  1977.  1980.  1973.  1981.  1982.  1985.  1982.  1983.
  1992.  1985.  1988.  1992.  1998.  1995.  2000.  2002.  1999.  2007.
  2005.  2012.  2020.  2016.  2011.  2017.  2017.  2024.  2020.  2013.
  2015.  2013.  2010.  2013.  2009.  2010.  2005.  2011.  2014.  2010.
  2008.  2014.  2009.  2007.  2009.  2016.  2016.  2016.  2017.  2018.
  2023.  2022.  2019.  2023.  2022.  2024.  2028.  2019.  2021.  2020.
  2026.  2020.  2027.  2024.  2031.  2029.  2036.  2038.  2038.  2040.
  2038.  2034.  2035.  2042.  2045.  2044.  2045.  2044.  2050.  2047.
  2050.  2050.  2055.  2053.  2053.  2051.  2062.  2054.  2059.  2066.
  2064.  2065.  2058.  2064.  2066.  2063.  2063.  2067.  2068.  2081.
  2080.  2080.  2083.  2089.  2091.  2089.  2090.  2101.  2095.  2102.
  2102.  2102.  2108.  2115.  2109.  2111.  2118.  2112.  2114.  2117.
  2121.  2120.  2123.  2122.  2123.  2124.  2129.  2135.  2133.  2130.
  2133.  2139.  2139.  2133.  2134.  2128.  2127.  2124.  2123.  2125.
  2123.  2121.  2121.  2122.  2121.  2117.  2110.  2113.  2118.  2108.
  2113.  2110.  2111.  2104.  2108.  2106.  2105.  2102.  2091.  2092.
  2092.  2083.  2072.  2074.  2071.  2064.  2061.  2060.  2049.  2051.
  2045.  2033.  2034.  2031.  2026.  2022.  2013.  2014.  2012.  2007.
  2006.  2002.  2000.  1997.  1998.  1992.  1990.  1982.  1988.  1979.
  1977.  1974.  1982.  1972.  1971.  1971.  1972.  1970.  1975.  1969.
  1967.  1971.  1964.  1961.  1961.  1962.  1960.  1959.  1960.  1954.
  1950.  1950.  1951.  1948.  1944.  1938.  1940.  1942.  1942.  1942.
  1949.  1950.  1952.  1951.  1946.  1950.  1955.  1954.  1958.  1957.
  1953.  1955.  1955.  1961.  1962.  1962.  1968.  1959.  1960.  1960.
  1961.  1962.  1957.  1968.  1967.  1968.  1962.  1962.  1969.  1960.
  1958.  1963.  1965.  1959.  1959.  1959.  1955.  1956.  1957.]","NA","2 + 4","0","space","NA","NA","NA","space","NA","799","NA","NA","NA","799","NA","2","legacy","1024","2","48000","-16","experiment","4","even","NA","258720","306323","NA","248080","83360","82569","NA","NA","2541","NA","NA","304818","244569","2596","NA","NA","246075","NA","306324","248081","311645","252082","NA","302469","242331","311323","NA","252080","304459","244201","301400","252097","252654","3395","NA","83360","NA","82569","302469","242330","Extended template","0","0","0","yes","1024"
"undefined","undefined","undefined","undefined","black","yes","xpyriment","legacy","legacy","0","uniform","undefined","undefined","NA","NA","0","5","NA","14","0","0","0","0","0","0","NA","5","14","0","0","NA","14","NA","5","14","5","14","NA","5","14","5","NA","14","5","14","5","14","0","0","0","0","NA","0","5","14","10/04/18 16:17:57","A template containing a practice and an experimental phase","easy","yes","Experiment.osexp","C:\Users\EEGExp\Desktop","no","mono","no","18","no","white","no","yes","768","legacy","5","14","0","C:/Users/EEGExp/Desktop/subject-4.csv","xpyriment","Kafkaesque Koffka","3.2.5","yes","[ 1934.  1930.  1933.  1941.  1939.  1945.  1948.  1942.  1948.  1948.
  1953.  1957.  1957.  1959.  1955.  1962.  1965.  1961.  1969.  1972.
  1974.  1974.  1984.  1987.  1987.  1996.  1993.  1999.  1998.  1995.
  1994.  1996.  1993.  1986.  1987.  1987.  1991.  1980.  1976.  1974.
  1973.  1973.  1972.  1974.  1974.  1977.  1972.  1974.  1980.  1979.
  1984.  1982.  1976.  1984.  1990.  1979.  1979.  1980.  1979.  1980.
  1977.  1979.  1976.  1973.  1974.  1973.  1972.  1977.  1973.  1972.
  1970.  1972.  1967.  1974.  1974.  1975.  1972.  1974.  1965.  1968.
  1965.  1968.  1967.  1959.  1959.  1959.  1953.  1946.  1952.  1945.
  1940.  1936.  1930.  1937.  1930.  1930.  1928.  1933.  1933.  1935.
  1932.  1932.  1935.  1935.  1936.  1934.  1929.  1928.  1927.  1928.
  1935.  1934.  1932.  1930.  1923.  1927.  1927.  1923.  1919.  1926.
  1914.  1913.  1912.  1909.  1909.  1908.  1907.  1908.  1907.  1906.
  1906.  1904.  1908.  1905.  1905.  1908.  1904.  1911.  1906.  1905.
  1899.  1898.  1898.  1900.  1897.  1892.  1894.  1892.  1893.  1887.
  1889.  1880.  1882.  1878.  1869.  1877.  1869.  1871.  1870.  1862.
  1860.  1863.  1862.  1863.  1860.  1862.  1859.  1852.  1857.  1857.
  1851.  1851.  1843.  1842.  1843.  1841.  1833.  1837.  1837.  1829.
  1826.  1835.  1825.  1823.  1828.  1826.  1819.  1823.  1819.  1822.
  1818.  1817.  1811.  1809.  1807.  1808.  1801.  1799.  1799.  1796.
  1794.  1796.  1792.  1789.  1788.  1789.  1790.  1792.  1786.  1784.
  1785.  1783.  1787.  1781.  1778.  1779.  1776.  1777.  1777.  1776.
  1773.  1776.  1777.  1783.  1781.  1782.  1782.  1782.  1786.  1791.
  1787.  1790.  1785.  1788.  1786.  1789.  1786.  1786.  1782.  1789.
  1785.  1784.  1780.  1779.  1783.  1776.  1775.  1775.  1781.  1778.
  1777.  1778.  1774.  1781.  1777.  1776.  1778.  1778.  1778.  1776.
  1781.  1779.  1781.  1781.  1785.  1776.  1782.  1782.  1778.  1783.
  1780.  1777.  1780.  1786.  1781.  1783.  1775.  1771.  1779.  1772.
  1775.  1767.  1766.  1770.  1764.  1760.  1762.  1756.  1736.  1737.
  1750.  1757.  1752.  1737.  1733.  1728.  1733.  1730.  1731.  1737.
  1737.  1740.  1736.  1735.  1736.  1738.  1740.  1742.  1745.  1740.
  1743.  1747.  1745.  1742.  1748.  1746.  1747.  1749.  1746.  1749.
  1745.  1754.  1753.  1749.  1751.  1750.  1750.  1751.  1748.  1753.
  1758.  1770.  1757.  1760.  1751.  1749.  1749.  1752.  1745.  1737.
  1740.  1737.  1732.  1727.  1722.  1724.  1724.  1717.  1717.  1716.
  1713.  1714.  1710.  1708.  1711.  1716.  1717.  1722.  1736.  1739.
  1718.   942.   262.     0.     0.     0.     0.     0.     0.     0.
     0.     0.   662.  1113.  1534.  1735.  1740.  1745.  1742.  1737.
  1738.  1738.  1730.  1727.  1723.  1718.  1721.  1711.  1709.  1701.
  1694.  1689.  1683.  1683.  1678.  1672.  1665.  1665.  1658.  1660.
  1646.  1646.  1637.  1641.  1630.  1629.  1621.  1622.  1614.  1614.
  1610.  1603.  1602.  1594.  1588.  1585.  1578.  1575.  1569.  1564.
  1560.  1548.  1542.  1527.  1522.  1514.  1502.  1492.  1479.  1473.
  1465.  1458.  1450.  1441.  1435.  1430.  1417.  1404.  1402.  1398.
  1390.  1388.  1383.  1377.  1378.  1383.  1374.  1372.  1366.  1364.
  1367.  1364.  1363.  1362.  1359.  1356.  1356.  1352.  1354.  1352.
  1358.  1358.  1356.  1360.  1358.  1354.  1359.  1357.  1358.  1352.
  1358.  1359.  1359.  1360.  1360.  1364.  1366.  1365.  1367.  1371.
  1372.  1377.  1376.  1377.  1382.  1387.  1387.  1390.  1396.  1393.
  1399.  1400.  1405.  1415.  1416.  1417.  1412.  1416.  1426.]","NA","4 + 3","0","space","NA","NA","NA","space","NA","799","NA","NA","NA","799","NA","2","legacy","1024","2","48000","-16","experiment","4","even","NA","258720","315686","NA","248080","83360","82569","NA","NA","2541","NA","NA","314180","244569","2596","NA","NA","246075","NA","315687","248081","321008","252082","NA","312741","242331","320686","NA","252080","313832","244201","311668","252097","252654","3395","NA","83360","NA","82569","312741","242330","Extended template","0","0","0","yes","1024"
"undefined","undefined","undefined","undefined","black","yes","xpyriment","legacy","legacy","0","uniform","undefined","undefined","NA","NA","0","6","NA","14","0","0","0","0","0","0","NA","6","14","0","0","NA","14","NA","6","14","6","14","NA","6","14","6","NA","14","6","14","6","14","0","0","0","0","NA","0","6","14","10/04/18 16:17:57","A template containing a practice and an experimental phase","hard","yes","Experiment.osexp","C:\Users\EEGExp\Desktop","no","mono","no","18","no","white","no","yes","768","legacy","6","14","0","C:/Users/EEGExp/Desktop/subject-4.csv","xpyriment","Kafkaesque Koffka","3.2.5","yes","[ 1633.  1634.  1640.  1647.  1643.  1652.  1648.  1654.  1655.  1660.
  1662.  1659.  1664.  1672.  1674.  1672.  1677.  1677.  1684.  1689.
  1691.  1697.  1697.  1699.  1701.  1703.  1702.  1705.  1708.  1704.
  1700.  1702.  1695.  1699.  1695.  1686.  1686.  1678.  1680.  1673.
  1678.  1668.  1667.  1663.  1664.  1664.  1658.  1659.  1661.  1657.
  1659.  1657.  1657.  1660.  1659.  1660.  1659.  1654.  1657.  1654.
  1650.  1646.  1646.  1647.  1646.  1640.  1644.  1637.  1638.  1632.
  1637.  1637.  1639.  1634.  1638.  1640.  1635.  1636.  1638.  1641.
  1642.  1643.  1640.  1644.  1641.  1645.  1643.  1640.  1642.  1638.
  1645.  1637.  1639.  1639.  1632.  1632.  1630.  1633.  1626.  1624.
  1636.  1625.  1633.  1625.  1620.  1620.  1620.  1619.  1621.  1620.
  1618.  1617.  1616.  1617.  1619.  1618.  1628.  1626.  1626.  1626.
  1622.  1631.  1632.  1629.  1636.  1632.  1638.  1643.  1644.  1648.
  1650.  1651.  1653.  1657.  1663.  1660.  1667.  1668.  1672.  1674.
  1676.  1677.  1681.  1683.  1687.  1687.  1687.  1688.  1688.  1686.
  1680.  1680.  1678.  1673.  1672.  1659.  1658.  1652.  1652.  1654.
  1647.  1645.  1636.  1631.  1628.  1625.  1625.  1623.  1616.  1610.
  1612.  1612.  1606.  1610.  1605.  1597.  1593.  1591.  1591.  1593.
  1591.  1586.  1588.  1590.  1587.  1581.  1588.  1584.  1591.  1595.
  1593.  1599.  1601.  1605.  1610.  1608.  1614.  1628.  1628.  1641.
  1642.  1649.  1648.  1651.  1669.  1670.  1661.  1671.  1673.  1671.
  1672.  1674.  1678.  1669.  1669.  1672.  1670.  1666.  1662.  1660.
  1668.  1662.  1664.  1663.  1658.  1660.  1654.  1663.  1657.  1660.
  1664.  1668.  1671.  1669.  1671.  1672.  1676.  1675.  1681.  1682.
  1688.  1687.  1682.  1686.  1693.  1691.  1692.  1689.  1691.  1684.
  1682.  1682.  1672.  1675.  1671.  1674.  1672.  1672.  1670.  1669.
  1664.  1663.  1661.  1668.  1658.  1652.  1661.  1657.  1653.  1654.
  1655.  1658.  1651.  1652.  1654.  1652.  1650.  1652.  1648.  1649.
  1650.  1655.  1659.  1661.  1659.  1650.  1656.  1652.  1659.  1659.
  1658.  1658.  1653.  1663.  1657.  1660.  1666.  1666.  1667.  1669.
  1669.  1682.  1683.  1681.  1698.  1708.  1704.  1703.  1707.  1699.
  1701.  1701.  1701.  1706.  1706.  1704.  1703.  1702.  1697.  1706.
  1700.  1696.  1705.  1700.  1696.  1698.  1695.  1689.  1690.  1695.
  1690.  1692.  1691.  1690.  1691.  1693.  1693.  1700.  1702.  1707.
  1705.  1704.  1712.  1713.  1720.  1719.  1727.  1732.  1730.  1740.
  1736.  1740.  1735.  1738.  1740.  1738.  1739.  1736.  1730.  1726.
  1727.  1723.  1716.  1715.  1713.  1712.  1712.  1705.  1712.  1707.
  1705.  1701.  1705.  1707.  1703.  1704.  1708.  1709.  1719.  1716.
  1718.  1725.  1726.  1726.  1731.  1729.  1735.  1737.  1741.  1744.
  1745.  1743.  1742.  1742.  1750.  1746.  1753.  1752.  1753.  1756.
  1755.  1759.  1766.  1764.  1763.  1762.  1771.  1769.  1771.  1778.
  1777.  1777.  1780.  1781.  1777.  1787.  1785.  1782.  1786.  1787.
  1785.  1784.  1788.  1788.  1790.  1786.  1790.  1782.  1788.  1792.
  1787.  1790.  1793.  1794.  1788.  1785.  1787.  1789.  1793.  1789.
  1793.  1787.  1785.  1785.  1788.  1784.  1783.  1778.  1780.  1782.
  1788.  1795.  1795.  1804.  1808.  1784.  1226.     0.     0.     0.
     0.     0.     0.     0.     0.     0.   175.   700.  1422.  1698.
  1754.  1772.  1760.  1754.  1746.  1741.  1733.  1730.  1717.  1722.
  1715.  1713.  1709.  1706.  1704.  1701.  1697.  1699.  1699.  1692.
  1697.  1698.  1702.  1700.  1700.  1699.  1704.  1697.  1689.]","NA","3x - 3 = 6","0","space","NA","NA","NA","space","NA","799","NA","NA","NA","799","NA","2","legacy","1024","2","48000","-16","experiment","4","even","NA","258720","331114","NA","248080","83360","82569","NA","NA","2541","NA","NA","329609","244569","2596","NA","NA","246075","NA","331115","248081","336436","252082","NA","322095","242331","336114","NA","252080","329155","244201","321026","252097","252654","3395","NA","83360","NA","82569","322095","242330","Extended template","0","0","0","yes","1024"
"undefined","undefined","undefined","undefined","black","yes","xpyriment","legacy","legacy","0","uniform","undefined","undefined","NA","NA","0","7","NA","14","0","0","0","0","0","0","NA","7","14","0","0","NA","14","NA","7","14","7","14","NA","7","14","7","NA","14","7","14","7","14","0","0","0","0","NA","0","7","14","10/04/18 16:17:57","A template containing a practice and an experimental phase","medium","yes","Experiment.osexp","C:\Users\EEGExp\Desktop","no","mono","no","18","no","white","no","yes","768","legacy","7","14","0","C:/Users/EEGExp/Desktop/subject-4.csv","xpyriment","Kafkaesque Koffka","3.2.5","yes","[ 1703.  1709.  1708.  1708.  1704.  1709.  1712.  1705.  1709.  1713.
  1710.  1707.  1710.  1703.  1706.  1709.  1708.  1702.  1703.  1704.
  1706.  1698.  1700.  1695.  1693.  1693.  1686.  1688.  1690.  1684.
  1684.  1687.  1689.  1691.  1692.  1696.  1693.  1694.  1704.  1713.
  1714.  1716.  1718.  1720.  1724.  1730.  1731.  1731.  1729.  1732.
  1731.  1733.  1733.  1731.  1731.  1727.  1720.  1714.  1708.  1709.
  1700.  1690.  1695.  1688.  1683.  1679.  1674.  1671.  1672.  1670.
  1667.  1674.  1675.  1667.  1668.  1667.  1669.  1665.  1667.  1672.
  1673.  1671.  1674.  1672.  1677.  1676.  1672.  1675.  1677.  1677.
  1677.  1683.  1683.  1682.  1686.  1691.  1690.  1691.  1692.  1693.
  1691.  1695.  1692.  1694.  1693.  1690.  1690.  1692.  1684.  1683.
  1682.  1683.  1686.  1679.  1681.  1678.  1676.  1677.  1674.  1675.
  1678.  1681.  1679.  1676.  1676.  1675.  1675.  1678.  1685.  1685.
  1679.  1678.  1673.  1674.  1672.  1670.  1672.  1668.  1669.  1670.
  1664.  1667.  1659.  1666.  1661.  1662.  1663.  1663.  1659.  1660.
  1662.  1655.  1660.  1661.  1667.  1670.  1672.  1672.  1675.  1679.
  1683.  1685.  1687.  1697.  1695.  1703.  1702.  1718.  1713.  1722.
  1727.  1738.  1736.  1746.  1748.  1761.  1765.  1764.  1774.  1776.
  1777.  1788.  1789.  1797.  1799.  1804.  1805.  1809.  1811.  1815.
  1807.  1810.  1809.  1811.  1799.  1809.  1803.  1797.  1796.  1794.
  1789.  1788.  1786.  1791.  1782.  1788.  1779.  1783.  1781.  1773.
  1774.  1777.  1777.  1774.  1776.  1773.  1774.  1778.  1775.  1779.
  1778.  1785.  1785.  1787.  1783.  1787.  1783.  1782.  1791.  1782.
  1786.  1789.  1791.  1788.  1791.  1795.  1783.  1789.  1797.  1794.
  1793.  1795.  1793.  1793.  1790.  1792.  1787.  1794.  1794.  1793.
  1795.  1794.  1790.  1787.  1787.  1780.  1784.  1781.  1776.  1780.
  1778.  1775.  1785.  1784.  1786.  1783.  1782.  1783.  1788.  1784.
  1789.  1788.  1785.  1784.  1783.  1798.  1797.  1796.  1800.  1803.
  1797.  1805.  1806.  1805.  1804.  1804.  1805.  1808.  1810.  1810.
  1807.  1819.  1813.  1815.  1813.  1815.  1813.  1811.  1812.  1808.
  1811.  1803.  1806.  1804.  1805.  1808.  1804.  1801.  1804.  1808.
  1807.  1813.  1810.  1815.  1812.  1823.  1819.  1822.  1825.  1829.
  1830.  1833.  1834.  1832.  1831.  1835.  1847.  1844.  1845.  1847.
  1854.  1846.  1849.  1857.  1870.  1867.  1871.  1862.  1865.  1865.
  1859.  1858.  1859.  1859.  1846.  1849.  1851.  1842.  1835.  1841.
  1837.  1834.  1832.  1828.  1821.  1823.  1823.  1821.  1818.  1822.
  1822.  1820.  1814.  1814.  1818.  1821.  1823.  1820.  1822.  1819.
  1821.  1829.  1826.  1833.  1837.  1843.  1843.  1850.  1851.  1853.
  1856.  1858.  1855.  1857.  1861.  1863.  1867.  1870.  1865.  1867.
  1866.  1866.  1869.  1869.  1866.  1874.  1874.  1874.  1871.  1872.
  1864.  1870.  1868.  1873.  1864.  1865.  1863.  1859.  1855.  1855.
  1854.  1843.  1846.  1844.  1845.  1845.  1843.  1837.  1844.  1844.
  1847.  1840.  1845.  1839.  1842.  1846.  1844.  1839.  1847.  1842.
  1849.  1843.  1841.  1836.  1838.  1837.  1831.  1832.  1822.  1826.
  1826.  1824.  1821.  1818.  1812.  1817.  1811.  1800.  1801.  1795.
  1799.  1791.  1793.  1792.  1792.  1789.  1788.  1791.  1787.  1795.
  1799.  1793.  1801.  1799.  1805.  1799.  1815.  1818.  1813.  1827.
  1825.  1829.  1829.  1836.  1841.  1841.  1843.  1851.  1851.  1868.
  1867.  1871.  1881.  1882.  1887.  1897.  1898.  1906.  1904.  1915.
  1920.  1931.  1942.  1948.  1950.  1953.  1958.  1956.  1966.]","NA","4x = 16","0","space","NA","NA","NA","space","NA","799","NA","NA","NA","799","NA","2","legacy","1024","2","48000","-16","experiment","4","even","NA","258720","341567","NA","248080","83360","82569","NA","NA","2541","NA","NA","340061","244569","2596","NA","NA","246075","NA","341568","248081","346889","252082","NA","337531","242331","346567","NA","252080","339701","244201","336454","252097","252654","3395","NA","83360","NA","82569","337531","242330","Extended template","0","0","0","yes","1024"
"undefined","undefined","undefined","undefined","black","yes","xpyriment","legacy","legacy","0","uniform","undefined","undefined","NA","NA","0","8","NA","14","0","0","0","0","0","0","NA","8","14","0","0","NA","14","NA","8","14","8","14","NA","8","14","8","NA","14","8","14","8","14","0","0","0","0","NA","0","8","14","10/04/18 16:17:57","A template containing a practice and an experimental phase","hard","yes","Experiment.osexp","C:\Users\EEGExp\Desktop","no","mono","no","18","no","white","no","yes","768","legacy","8","14","0","C:/Users/EEGExp/Desktop/subject-4.csv","xpyriment","Kafkaesque Koffka","3.2.5","yes","[ 1852.  1850.  1848.  1845.  1842.  1841.  1839.  1832.  1827.  1820.
  1821.  1820.  1817.  1810.  1811.  1804.  1804.  1804.  1807.  1809.
  1806.  1805.  1810.  1809.  1805.  1806.  1802.  1799.  1805.  1813.
  1808.  1814.  1807.  1809.  1809.  1811.  1823.  1820.  1824.  1828.
