"acc","accuracy","average_response_time","avg","avg_rt","background","bidi","canvas_backend","clock_backend","color_backend","compensation","coordinates","correct","correct_instructions","count_arithmetic","count_arithmetic_task","count_blank_screen_1","count_blocksequence","count_calc_slope","count_calc_slope_1","count_collect_pupil_trace","count_end_of_experiment","count_end_of_practice","count_experiment","count_fixation_cross","count_fixation_cross_1","count_getdata","count_instructions","count_instructions2","count_letter_task_1","count_new_inline_script_1","count_new_logger","count_new_logger_1","count_new_pygaze_drift_correct","count_new_pygaze_drift_correct_1","count_new_pygaze_log","count_new_pygaze_log_2","count_new_pygaze_start_recording","count_new_pygaze_start_recording_1","count_new_pygaze_stop_recording","count_new_pygaze_stop_recording_1","count_practice_instructions","count_pygaze_init","count_reset_feedback","count_reversal","count_test","count_test1","count_training","count_trial_sequence","count_trial_sequence_1","datetime","description","difficulty","disable_garbage_collection","experiment_file","experiment_path","font_bold","font_family","font_italic","font_size","font_underline","foreground","form_clicks","form_response","fullscreen","height","keyboard_backend","live_row","live_row_arithmetic","live_row_training","logfile","mouse_backend","opensesame_codename","opensesame_version","practice","pupilsizes","question_no","repeat_cycle","response","response_end_of_experiment","response_end_of_practice","response_instructions","response_time","response_time_end_of_experiment","response_time_end_of_practice","response_time_instructions","result","round_decimals","sampler_backend","slope","sound_buf_size","sound_channels","sound_freq","sound_sample_size","start","str_pupilsizes","subject_nr","subject_parity","t0","t1","t2","time_arithmetic","time_arithmetic_task","time_blank_screen_1","time_blocksequence","time_calc_slope","time_calc_slope_1","time_collect_pupil_trace","time_end_of_experiment","time_end_of_practice","time_experiment","time_fixation_cross","time_fixation_cross_1","time_getdata","time_instructions","time_instructions2","time_letter_task_1","time_new_inline_script_1","time_new_logger","time_new_logger_1","time_new_pygaze_drift_correct","time_new_pygaze_drift_correct_1","time_new_pygaze_log","time_new_pygaze_log_2","time_new_pygaze_start_recording","time_new_pygaze_start_recording_1","time_new_pygaze_stop_recording","time_new_pygaze_stop_recording_1","time_practice_instructions","time_pygaze_init","time_reset_feedback","time_reversal","time_test","time_test1","time_training","time_trial_sequence","time_trial_sequence_1","title","total_correct","total_response_time","total_responses","uniform_coordinates","width"
"undefined","undefined","undefined","NA","undefined","black","yes","xpyriment","legacy","legacy","0","uniform","undefined","undefined","0","0","NA","0","0","NA","0","0","0","0","0","NA","0","0","0","NA","NA","0","NA","0","NA","0","NA","0","NA","0","NA","0","0","0","0","0","0","0","0","NA","10/11/18 13:23:09","A template containing a practice and an experimental phase","hard","yes","Experiment.osexp","C:\Users\EEGExp\Desktop","no","mono","no","18","no","white","no","Ok","yes","768","legacy","0","0","0","C:/Users/EEGExp/Desktop/subject-22.csv","xpyriment","Kafkaesque Koffka","3.2.5","yes","[ 1951.  1952.  1953.  1947.  1945.  1946.  1944.  1946.  1940.  1936.
  1935.  1933.  1929.  1921.  1922.  1917.  1916.  1913.  1911.  1903.
  1897.  1896.  1894.  1893.  1888.  1887.  1883.  1882.  1879.  1879.
  1881.  1875.  1878.  1872.  1868.  1874.  1869.  1872.  1871.  1872.
  1872.  1870.  1869.  1867.  1870.  1867.  1869.  1872.  1877.  1879.
  1883.  1880.  1877.  1880.  1883.  1886.  1880.  1883.  1887.  1887.
  1886.  1887.  1888.  1892.  1893.  1890.  1891.  1893.  1893.  1893.
  1890.  1890.  1888.  1890.  1891.  1889.  1892.  1893.  1892.  1896.
  1895.  1894.  1895.  1895.  1896.  1897.  1900.  1900.  1905.  1903.
  1907.  1903.  1906.  1911.  1906.  1904.  1896.  1899.  1901.  1895.
  1892.  1890.  1891.  1888.  1882.  1887.  1885.  1883.  1879.  1881.
  1879.  1881.  1874.  1879.  1879.  1877.  1877.  1879.  1877.  1875.
  1881.  1883.  1877.  1885.  1883.  1885.  1883.  1887.  1884.  1884.
  1885.  1886.  1886.  1884.  1882.  1885.  1883.  1883.  1880.  1886.
  1881.  1884.  1882.  1880.  1882.  1888.  1897.  1909.  1908.  1906.
  1911.  1911.  1914.  1912.  1915.  1912.  1915.  1916.  1914.  1921.
  1918.  1918.  1919.  1926.  1924.  1923.  1928.  1929.  1930.  1931.
  1933.  1934.  1934.  1936.  1943.  1947.  1950.  1954.  1956.  1960.
  1964.  1974.  1974.  1982.  1987.  1992.  1998.  2002.  2006.  2015.
  2016.  2024.  2025.  2027.  2028.  2032.  2030.  2031.  2030.  2028.
  2024.  2020.  2018.  2018.  2017.  2012.  2008.  2009.  2009.  1999.
  1997.  1999.  1996.  1993.  1995.  1991.  1989.  1986.  1990.  1989.
  1994.  1990.  1990.  1986.  1989.  1986.  1985.  1985.  1991.  1990.
  2000.  1997.  1996.  2002.  2005.  2005.  2012.  2010.  2016.  2021.
  2025.  2029.  2029.  2034.  2038.  2040.  2057.  2056.  2061.  2057.
  2068.  2075.  2079.  2083.  2084.  2086.  2093.  2099.  2100.  2104.
  2103.  2107.  2111.  2111.  2109.  2108.  2109.  2107.  2104.  2103.
  2102.  2097.  2097.  2093.  2087.  2088.  2080.  2078.  2078.  2075.
  2070.  2070.  2072.  2068.  2068.  2071.  2068.  2067.  2072.  2075.
  2073.  2075.  2078.  2081.  2081.  2087.  2091.  2091.  2096.  2097.
  2101.  2105.  2101.  2104.  2110.  2111.  2110.  2112.  2106.  2108.
  2105.  2108.  2110.  2106.  2100.  2106.  2103.  2100.  2099.  2097.
  2099.  2096.  2094.  2093.  2093.  2087.  2087.  2081.  2079.  2075.
  2072.  2067.  2063.  2059.  2057.  2053.  2049.  2044.  2042.  2041.
  2035.  2032.  2032.  2023.  2025.  2022.  2023.  2016.  2016.  2011.
  2010.  2008.  2008.  2003.  1993.  1998.  1995.  1991.  1988.  1987.
  1985.  1983.  1980.  1984.  1977.  1977.  1977.  1974.  1970.  1966.
  1968.  1967.  1968.  1963.  1962.  1964.  1960.  1959.  1958.  1957.
  1959.  1957.  1956.  1955.  1955.  1955.  1956.  1953.  1957.  1958.
  1959.  1960.  1963.  1960.  1964.  1964.  1968.  1970.  1971.  1974.]","3x - 8 = 7","0","space","NA","NA","space","601","NA","NA","601","NA","2","legacy","NA","1024","2","48000","-16","experiment","1951.0,1952.0,1953.0,1947.0,1945.0,1946.0,1944.0,1946.0,1940.0,1936.0,1935.0,1933.0,1929.0,1921.0,1922.0,1917.0,1916.0,1913.0,1911.0,1903.0,1897.0,1896.0,1894.0,1893.0,1888.0,1887.0,1883.0,1882.0,1879.0,1879.0,1881.0,1875.0,1878.0,1872.0,1868.0,1874.0,1869.0,1872.0,1871.0,1872.0,1872.0,1870.0,1869.0,1867.0,1870.0,1867.0,1869.0,1872.0,1877.0,1879.0,1883.0,1880.0,1877.0,1880.0,1883.0,1886.0,1880.0,1883.0,1887.0,1887.0,1886.0,1887.0,1888.0,1892.0,1893.0,1890.0,1891.0,1893.0,1893.0,1893.0,1890.0,1890.0,1888.0,1890.0,1891.0,1889.0,1892.0,1893.0,1892.0,1896.0,1895.0,1894.0,1895.0,1895.0,1896.0,1897.0,1900.0,1900.0,1905.0,1903.0,1907.0,1903.0,1906.0,1911.0,1906.0,1904.0,1896.0,1899.0,1901.0,1895.0,1892.0,1890.0,1891.0,1888.0,1882.0,1887.0,1885.0,1883.0,1879.0,1881.0,1879.0,1881.0,1874.0,1879.0,1879.0,1877.0,1877.0,1879.0,1877.0,1875.0,1881.0,1883.0,1877.0,1885.0,1883.0,1885.0,1883.0,1887.0,1884.0,1884.0,1885.0,1886.0,1886.0,1884.0,1882.0,1885.0,1883.0,1883.0,1880.0,1886.0,1881.0,1884.0,1882.0,1880.0,1882.0,1888.0,1897.0,1909.0,1908.0,1906.0,1911.0,1911.0,1914.0,1912.0,1915.0,1912.0,1915.0,1916.0,1914.0,1921.0,1918.0,1918.0,1919.0,1926.0,1924.0,1923.0,1928.0,1929.0,1930.0,1931.0,1933.0,1934.0,1934.0,1936.0,1943.0,1947.0,1950.0,1954.0,1956.0,1960.0,1964.0,1974.0,1974.0,1982.0,1987.0,1992.0,1998.0,2002.0,2006.0,2015.0,2016.0,2024.0,2025.0,2027.0,2028.0,2032.0,2030.0,2031.0,2030.0,2028.0,2024.0,2020.0,2018.0,2018.0,2017.0,2012.0,2008.0,2009.0,2009.0,1999.0,1997.0,1999.0,1996.0,1993.0,1995.0,1991.0,1989.0,1986.0,1990.0,1989.0,1994.0,1990.0,1990.0,1986.0,1989.0,1986.0,1985.0,1985.0,1991.0,1990.0,2000.0,1997.0,1996.0,2002.0,2005.0,2005.0,2012.0,2010.0,2016.0,2021.0,2025.0,2029.0,2029.0,2034.0,2038.0,2040.0,2057.0,2056.0,2061.0,2057.0,2068.0,2075.0,2079.0,2083.0,2084.0,2086.0,2093.0,2099.0,2100.0,2104.0,2103.0,2107.0,2111.0,2111.0,2109.0,2108.0,2109.0,2107.0,2104.0,2103.0,2102.0,2097.0,2097.0,2093.0,2087.0,2088.0,2080.0,2078.0,2078.0,2075.0,2070.0,2070.0,2072.0,2068.0,2068.0,2071.0,2068.0,2067.0,2072.0,2075.0,2073.0,2075.0,2078.0,2081.0,2081.0,2087.0,2091.0,2091.0,2096.0,2097.0,2101.0,2105.0,2101.0,2104.0,2110.0,2111.0,2110.0,2112.0,2106.0,2108.0,2105.0,2108.0,2110.0,2106.0,2100.0,2106.0,2103.0,2100.0,2099.0,2097.0,2099.0,2096.0,2094.0,2093.0,2093.0,2087.0,2087.0,2081.0,2079.0,2075.0,2072.0,2067.0,2063.0,2059.0,2057.0,2053.0,2049.0,2044.0,2042.0,2041.0,2035.0,2032.0,2032.0,2023.0,2025.0,2022.0,2023.0,2016.0,2016.0,2011.0,2010.0,2008.0,2008.0,2003.0,1993.0,1998.0,1995.0,1991.0,1988.0,1987.0,1985.0,1983.0,1980.0,1984.0,1977.0,1977.0,1977.0,1974.0,1970.0,1966.0,1968.0,1967.0,1968.0,1963.0,1962.0,1964.0,1960.0,1959.0,1958.0,1957.0,1959.0,1957.0,1956.0,1955.0,1955.0,1955.0,1956.0,1953.0,1957.0,1958.0,1959.0,1960.0,1963.0,1960.0,1964.0,1964.0,1968.0,1970.0,1971.0,1974.0","22","even","63846","68852","5006","59997","63851","NA","57526","NA","NA","56884","NA","NA","2302","62346","NA","63852","2443","NA","NA","NA","69152","NA","60476","NA","68852","NA","61986","NA","NA","NA","57526","3045","NA","NA","68852","63846","56884","60476","NA","Extended template","0","0","0","yes","1024"
"undefined","undefined","undefined","NA","undefined","black","yes","xpyriment","legacy","legacy","0","uniform","undefined","undefined","0","1","NA","0","1","NA","0","0","0","0","1","NA","1","0","0","NA","NA","1","NA","1","NA","1","NA","1","NA","1","NA","0","0","0","0","1","1","0","1","NA","10/11/18 13:23:09","A template containing a practice and an experimental phase","hard","yes","Experiment.osexp","C:\Users\EEGExp\Desktop","no","mono","no","18","no","white","no","Ok","yes","768","legacy","1","1","0","C:/Users/EEGExp/Desktop/subject-22.csv","xpyriment","Kafkaesque Koffka","3.2.5","yes","[ 1749.  1749.  1748.  1751.  1747.  1748.  1747.  1751.  1749.  1749.
  1752.  1748.  1754.  1748.  1747.  1748.  1743.  1742.  1745.  1739.
  1741.  1734.  1732.  1733.  1726.  1722.  1718.  1719.  1713.  1712.
  1706.  1705.  1699.  1701.  1699.  1696.  1695.  1694.  1693.  1692.
  1693.  1697.  1695.  1694.  1695.  1697.  1695.  1695.  1698.  1691.
  1692.  1693.  1690.  1690.  1685.  1684.  1680.  1682.  1680.  1677.
  1677.  1675.  1674.  1674.  1674.  1673.  1669.  1669.  1670.  1669.
  1669.  1666.  1666.  1669.  1668.  1667.  1673.  1678.  1685.  1679.
  1675.  1679.  1681.  1679.  1673.  1677.  1677.  1678.  1677.  1677.
  1677.  1680.  1683.  1681.  1681.  1682.  1684.  1687.  1689.  1695.
  1699.  1703.  1700.  1709.  1709.  1711.  1719.  1717.  1722.  1725.
  1729.  1731.  1734.  1738.  1747.  1753.  1755.  1763.  1765.  1774.
  1778.  1780.  1784.  1787.  1791.  1793.  1796.  1796.  1806.  1805.
  1809.  1811.  1811.  1811.  1809.  1810.  1815.  1813.  1813.  1814.
  1814.  1815.  1813.  1813.  1812.  1813.  1812.  1811.  1808.  1806.
  1804.  1808.  1803.  1796.  1792.  1791.  1786.  1786.  1785.  1782.
  1783.  1780.  1778.  1779.  1780.  1781.  1779.  1781.  1783.  1782.
  1783.  1780.  1777.  1783.  1780.  1779.  1778.  1779.  1775.  1777.
  1772.  1769.  1767.  1765.  1762.  1760.  1761.  1758.  1759.  1756.
  1755.  1752.  1756.  1751.  1755.  1755.  1755.  1752.  1752.  1752.
  1752.  1752.  1751.  1753.  1753.  1751.  1754.  1753.  1752.  1755.
  1753.  1751.  1752.  1752.  1752.  1755.  1750.  1749.  1750.  1746.
  1747.  1748.  1749.  1746.  1747.  1754.  1747.  1749.  1750.  1751.
  1749.  1746.  1747.  1748.  1747.  1749.  1745.  1742.  1743.  1745.
  1747.  1745.  1746.  1736.  1738.  1736.  1736.  1734.  1738.  1734.
  1731.  1734.  1733.  1733.  1732.  1731.  1728.  1725.  1724.  1726.
  1726.  1723.  1720.  1722.  1719.  1719.  1720.  1720.  1718.  1721.
  1720.  1724.  1721.  1721.  1722.  1725.  1728.  1729.  1729.  1730.
  1739.  1738.  1739.  1742.  1746.  1747.  1750.  1750.  1747.  1748.
  1748.  1750.  1744.  1747.  1742.  1740.  1740.  1741.  1740.  1735.
  1732.  1734.  1734.  1733.  1728.  1730.  1729.  1731.  1726.  1726.
  1729.  1727.  1725.  1724.  1724.  1724.  1723.  1720.  1722.  1723.
  1717.  1717.  1716.  1715.  1716.  1713.  1713.  1710.  1713.  1712.
  1711.  1711.  1710.  1705.  1705.  1708.  1706.  1708.  1705.  1705.
  1706.  1711.  1706.  1708.  1708.  1707.  1708.  1705.  1712.  1707.
  1710.  1710.  1706.  1705.  1706.  1710.  1705.  1709.  1707.  1705.
  1704.  1704.  1704.  1704.  1703.  1704.  1700.  1707.  1705.  1702.
  1701.  1702.  1700.  1702.  1702.  1701.  1702.  1704.  1705.  1705.
  1710.  1711.  1714.  1716.  1712.  1715.  1716.  1714.  1716.  1713.
  1713.  1713.  1708.  1710.  1706.  1702.  1705.  1702.  1700.  1699.]","7x - 3 = 18","0","space","NA","NA","space","601","NA","NA","601","LinregressResult(slope=0.48424090150563442, intercept=1875.4646992481203, rvalue=0.71145936808742216, pvalue=5.8838753070506233e-63, stderr=0.023974889648470363)","2","legacy","0.484240901506","1024","2","48000","-16","experiment","1749.0,1749.0,1748.0,1751.0,1747.0,1748.0,1747.0,1751.0,1749.0,1749.0,1752.0,1748.0,1754.0,1748.0,1747.0,1748.0,1743.0,1742.0,1745.0,1739.0,1741.0,1734.0,1732.0,1733.0,1726.0,1722.0,1718.0,1719.0,1713.0,1712.0,1706.0,1705.0,1699.0,1701.0,1699.0,1696.0,1695.0,1694.0,1693.0,1692.0,1693.0,1697.0,1695.0,1694.0,1695.0,1697.0,1695.0,1695.0,1698.0,1691.0,1692.0,1693.0,1690.0,1690.0,1685.0,1684.0,1680.0,1682.0,1680.0,1677.0,1677.0,1675.0,1674.0,1674.0,1674.0,1673.0,1669.0,1669.0,1670.0,1669.0,1669.0,1666.0,1666.0,1669.0,1668.0,1667.0,1673.0,1678.0,1685.0,1679.0,1675.0,1679.0,1681.0,1679.0,1673.0,1677.0,1677.0,1678.0,1677.0,1677.0,1677.0,1680.0,1683.0,1681.0,1681.0,1682.0,1684.0,1687.0,1689.0,1695.0,1699.0,1703.0,1700.0,1709.0,1709.0,1711.0,1719.0,1717.0,1722.0,1725.0,1729.0,1731.0,1734.0,1738.0,1747.0,1753.0,1755.0,1763.0,1765.0,1774.0,1778.0,1780.0,1784.0,1787.0,1791.0,1793.0,1796.0,1796.0,1806.0,1805.0,1809.0,1811.0,1811.0,1811.0,1809.0,1810.0,1815.0,1813.0,1813.0,1814.0,1814.0,1815.0,1813.0,1813.0,1812.0,1813.0,1812.0,1811.0,1808.0,1806.0,1804.0,1808.0,1803.0,1796.0,1792.0,1791.0,1786.0,1786.0,1785.0,1782.0,1783.0,1780.0,1778.0,1779.0,1780.0,1781.0,1779.0,1781.0,1783.0,1782.0,1783.0,1780.0,1777.0,1783.0,1780.0,1779.0,1778.0,1779.0,1775.0,1777.0,1772.0,1769.0,1767.0,1765.0,1762.0,1760.0,1761.0,1758.0,1759.0,1756.0,1755.0,1752.0,1756.0,1751.0,1755.0,1755.0,1755.0,1752.0,1752.0,1752.0,1752.0,1752.0,1751.0,1753.0,1753.0,1751.0,1754.0,1753.0,1752.0,1755.0,1753.0,1751.0,1752.0,1752.0,1752.0,1755.0,1750.0,1749.0,1750.0,1746.0,1747.0,1748.0,1749.0,1746.0,1747.0,1754.0,1747.0,1749.0,1750.0,1751.0,1749.0,1746.0,1747.0,1748.0,1747.0,1749.0,1745.0,1742.0,1743.0,1745.0,1747.0,1745.0,1746.0,1736.0,1738.0,1736.0,1736.0,1734.0,1738.0,1734.0,1731.0,1734.0,1733.0,1733.0,1732.0,1731.0,1728.0,1725.0,1724.0,1726.0,1726.0,1723.0,1720.0,1722.0,1719.0,1719.0,1720.0,1720.0,1718.0,1721.0,1720.0,1724.0,1721.0,1721.0,1722.0,1725.0,1728.0,1729.0,1729.0,1730.0,1739.0,1738.0,1739.0,1742.0,1746.0,1747.0,1750.0,1750.0,1747.0,1748.0,1748.0,1750.0,1744.0,1747.0,1742.0,1740.0,1740.0,1741.0,1740.0,1735.0,1732.0,1734.0,1734.0,1733.0,1728.0,1730.0,1729.0,1731.0,1726.0,1726.0,1729.0,1727.0,1725.0,1724.0,1724.0,1724.0,1723.0,1720.0,1722.0,1723.0,1717.0,1717.0,1716.0,1715.0,1716.0,1713.0,1713.0,1710.0,1713.0,1712.0,1711.0,1711.0,1710.0,1705.0,1705.0,1708.0,1706.0,1708.0,1705.0,1705.0,1706.0,1711.0,1706.0,1708.0,1708.0,1707.0,1708.0,1705.0,1712.0,1707.0,1710.0,1710.0,1706.0,1705.0,1706.0,1710.0,1705.0,1709.0,1707.0,1705.0,1704.0,1704.0,1704.0,1704.0,1703.0,1704.0,1700.0,1707.0,1705.0,1702.0,1701.0,1702.0,1700.0,1702.0,1702.0,1701.0,1702.0,1704.0,1705.0,1705.0,1710.0,1711.0,1714.0,1716.0,1712.0,1715.0,1716.0,1714.0,1716.0,1713.0,1713.0,1713.0,1708.0,1710.0,1706.0,1702.0,1705.0,1702.0,1700.0,1699.0","22","even","75154","80160","5006","59997","75159","NA","57526","69693","NA","56884","NA","NA","2302","73654","NA","75160","2443","NA","NA","NA","80460","NA","70231","NA","80160","NA","73302","NA","69178","NA","57526","3045","NA","NA","80160","75154","56884","70231","NA","Extended template","0","0","0","yes","1024"
"undefined","undefined","undefined","NA","undefined","black","yes","xpyriment","legacy","legacy","0","uniform","undefined","undefined","0","2","NA","0","2","NA","0","0","0","0","2","NA","2","0","0","NA","NA","2","NA","2","NA","2","NA","2","NA","2","NA","0","0","0","0","2","2","0","2","NA","10/11/18 13:23:09","A template containing a practice and an experimental phase","easy","yes","Experiment.osexp","C:\Users\EEGExp\Desktop","no","mono","no","18","no","white","no","Ok","yes","768","legacy","2","2","0","C:/Users/EEGExp/Desktop/subject-22.csv","xpyriment","Kafkaesque Koffka","3.2.5","yes","[ 1492.  1491.  1491.  1492.  1494.  1494.  1495.  1497.  1497.  1501.
  1503.  1503.  1509.  1506.  1513.  1512.  1515.  1515.  1522.  1520.
  1525.  1526.  1530.  1532.  1533.  1538.  1541.  1542.  1549.  1552.
  1558.  1559.  1561.  1568.  1574.  1578.  1580.  1586.  1586.  1595.
  1599.  1606.  1608.  1614.  1621.  1623.  1629.  1636.  1642.  1645.
  1653.  1659.  1663.  1665.  1671.  1679.  1682.  1682.  1685.  1683.
  1689.  1685.  1688.  1685.  1684.  1684.  1682.  1680.  1680.  1671.
  1676.  1670.  1665.  1666.  1660.  1660.  1656.  1652.  1650.  1650.
  1647.  1646.  1642.  1641.  1640.  1637.  1628.  1634.  1635.  1632.
  1633.  1630.  1630.  1630.  1623.  1624.  1625.  1626.  1625.  1623.
  1622.  1622.  1620.  1621.  1624.  1625.  1627.  1629.  1631.  1635.
  1636.  1637.  1641.  1641.  1642.  1645.  1651.  1653.  1652.  1653.
  1656.  1655.  1653.  1657.  1659.  1658.  1658.  1660.  1661.  1659.
  1657.  1659.  1659.  1655.  1659.  1658.  1651.  1652.  1653.  1653.
  1651.  1649.  1649.  1652.  1649.  1654.  1652.  1654.  1656.  1654.
  1655.  1658.  1657.  1654.  1658.  1658.  1658.  1655.  1657.  1657.
  1653.  1650.  1654.  1651.  1644.  1644.  1642.  1641.  1633.  1637.
  1634.  1631.  1627.  1627.  1627.  1621.  1620.  1619.  1616.  1615.
  1613.  1611.  1606.  1604.  1599.  1597.  1596.  1596.  1592.  1586.
  1586.  1583.  1580.  1581.  1578.  1577.  1573.  1573.  1570.  1572.
  1568.  1568.  1572.  1570.  1568.  1572.  1573.  1573.  1573.  1574.
  1572.  1574.  1575.  1575.  1577.  1583.  1582.  1580.  1584.  1585.
  1586.  1586.  1588.  1589.  1589.  1593.  1593.  1593.  1592.  1596.
  1594.  1597.  1601.  1604.  1603.  1605.  1607.  1614.  1615.  1614.
  1615.  1615.  1616.  1614.  1618.  1619.  1623.  1623.  1625.  1628.
  1627.  1628.  1631.  1630.  1635.  1639.  1642.  1646.  1649.  1656.
  1656.  1661.  1669.  1670.  1676.  1680.  1685.  1692.  1696.  1701.
  1705.  1709.  1715.  1716.  1722.  1725.  1728.  1732.  1736.  1740.
  1741.  1742.  1748.  1751.  1753.  1758.  1758.  1760.  1767.  1766.
  1774.  1775.  1779.  1783.  1785.  1789.  1793.  1795.  1803.  1804.
  1804.  1809.  1810.  1814.  1818.  1819.  1818.  1820.  1825.  1826.
  1825.  1829.  1831.  1832.  1833.  1834.  1836.  1842.  1844.  1845.
  1850.  1853.  1855.  1860.  1860.  1863.  1867.  1871.  1875.  1876.
  1878.  1880.  1882.  1882.  1884.  1887.  1889.  1892.  1895.  1892.
  1896.  1894.  1897.  1901.  1899.  1896.  1895.  1897.  1898.  1894.
  1895.  1895.  1892.  1886.  1875.  1875.  1872.  1868.  1862.  1861.
  1846.  1845.  1839.  1834.  1829.  1825.  1819.  1818.  1807.  1799.
  1801.  1792.  1789.  1785.  1777.  1777.  1770.  1762.  1758.  1757.
  1755.  1748.  1746.  1742.  1735.  1735.  1735.  1731.  1727.  1728.
  1723.  1720.  1721.  1720.  1722.  1718.  1719.  1718.  1720.  1716.]","1 + 8","0","space","NA","NA","space","601","NA","NA","601","LinregressResult(slope=-0.017830236438977753, intercept=1735.2199624060149, rvalue=-0.057119549251555365, pvalue=0.25439188848016153, stderr=0.015621443499071767)","2","legacy","-0.017830236439","1024","2","48000","-16","experiment","1492.0,1491.0,1491.0,1492.0,1494.0,1494.0,1495.0,1497.0,1497.0,1501.0,1503.0,1503.0,1509.0,1506.0,1513.0,1512.0,1515.0,1515.0,1522.0,1520.0,1525.0,1526.0,1530.0,1532.0,1533.0,1538.0,1541.0,1542.0,1549.0,1552.0,1558.0,1559.0,1561.0,1568.0,1574.0,1578.0,1580.0,1586.0,1586.0,1595.0,1599.0,1606.0,1608.0,1614.0,1621.0,1623.0,1629.0,1636.0,1642.0,1645.0,1653.0,1659.0,1663.0,1665.0,1671.0,1679.0,1682.0,1682.0,1685.0,1683.0,1689.0,1685.0,1688.0,1685.0,1684.0,1684.0,1682.0,1680.0,1680.0,1671.0,1676.0,1670.0,1665.0,1666.0,1660.0,1660.0,1656.0,1652.0,1650.0,1650.0,1647.0,1646.0,1642.0,1641.0,1640.0,1637.0,1628.0,1634.0,1635.0,1632.0,1633.0,1630.0,1630.0,1630.0,1623.0,1624.0,1625.0,1626.0,1625.0,1623.0,1622.0,1622.0,1620.0,1621.0,1624.0,1625.0,1627.0,1629.0,1631.0,1635.0,1636.0,1637.0,1641.0,1641.0,1642.0,1645.0,1651.0,1653.0,1652.0,1653.0,1656.0,1655.0,1653.0,1657.0,1659.0,1658.0,1658.0,1660.0,1661.0,1659.0,1657.0,1659.0,1659.0,1655.0,1659.0,1658.0,1651.0,1652.0,1653.0,1653.0,1651.0,1649.0,1649.0,1652.0,1649.0,1654.0,1652.0,1654.0,1656.0,1654.0,1655.0,1658.0,1657.0,1654.0,1658.0,1658.0,1658.0,1655.0,1657.0,1657.0,1653.0,1650.0,1654.0,1651.0,1644.0,1644.0,1642.0,1641.0,1633.0,1637.0,1634.0,1631.0,1627.0,1627.0,1627.0,1621.0,1620.0,1619.0,1616.0,1615.0,1613.0,1611.0,1606.0,1604.0,1599.0,1597.0,1596.0,1596.0,1592.0,1586.0,1586.0,1583.0,1580.0,1581.0,1578.0,1577.0,1573.0,1573.0,1570.0,1572.0,1568.0,1568.0,1572.0,1570.0,1568.0,1572.0,1573.0,1573.0,1573.0,1574.0,1572.0,1574.0,1575.0,1575.0,1577.0,1583.0,1582.0,1580.0,1584.0,1585.0,1586.0,1586.0,1588.0,1589.0,1589.0,1593.0,1593.0,1593.0,1592.0,1596.0,1594.0,1597.0,1601.0,1604.0,1603.0,1605.0,1607.0,1614.0,1615.0,1614.0,1615.0,1615.0,1616.0,1614.0,1618.0,1619.0,1623.0,1623.0,1625.0,1628.0,1627.0,1628.0,1631.0,1630.0,1635.0,1639.0,1642.0,1646.0,1649.0,1656.0,1656.0,1661.0,1669.0,1670.0,1676.0,1680.0,1685.0,1692.0,1696.0,1701.0,1705.0,1709.0,1715.0,1716.0,1722.0,1725.0,1728.0,1732.0,1736.0,1740.0,1741.0,1742.0,1748.0,1751.0,1753.0,1758.0,1758.0,1760.0,1767.0,1766.0,1774.0,1775.0,1779.0,1783.0,1785.0,1789.0,1793.0,1795.0,1803.0,1804.0,1804.0,1809.0,1810.0,1814.0,1818.0,1819.0,1818.0,1820.0,1825.0,1826.0,1825.0,1829.0,1831.0,1832.0,1833.0,1834.0,1836.0,1842.0,1844.0,1845.0,1850.0,1853.0,1855.0,1860.0,1860.0,1863.0,1867.0,1871.0,1875.0,1876.0,1878.0,1880.0,1882.0,1882.0,1884.0,1887.0,1889.0,1892.0,1895.0,1892.0,1896.0,1894.0,1897.0,1901.0,1899.0,1896.0,1895.0,1897.0,1898.0,1894.0,1895.0,1895.0,1892.0,1886.0,1875.0,1875.0,1872.0,1868.0,1862.0,1861.0,1846.0,1845.0,1839.0,1834.0,1829.0,1825.0,1819.0,1818.0,1807.0,1799.0,1801.0,1792.0,1789.0,1785.0,1777.0,1777.0,1770.0,1762.0,1758.0,1757.0,1755.0,1748.0,1746.0,1742.0,1735.0,1735.0,1735.0,1731.0,1727.0,1728.0,1723.0,1720.0,1721.0,1720.0,1722.0,1718.0,1719.0,1718.0,1720.0,1716.0","22","even","87369","92378","5009","59997","87377","NA","57526","80989","NA","56884","NA","NA","2302","85869","NA","87378","2443","NA","NA","NA","92677","NA","81662","NA","92378","NA","85512","NA","80474","NA","57526","3045","NA","NA","92378","87369","56884","81662","NA","Extended template","0","0","0","yes","1024"
"undefined","undefined","undefined","NA","undefined","black","yes","xpyriment","legacy","legacy","0","uniform","undefined","undefined","0","3","NA","0","3","NA","0","0","0","0","3","NA","3","0","0","NA","NA","3","NA","3","NA","3","NA","3","NA","3","NA","0","0","0","0","3","3","0","3","NA","10/11/18 13:23:09","A template containing a practice and an experimental phase","easy","yes","Experiment.osexp","C:\Users\EEGExp\Desktop","no","mono","no","18","no","white","no","Ok","yes","768","legacy","3","3","0","C:/Users/EEGExp/Desktop/subject-22.csv","xpyriment","Kafkaesque Koffka","3.2.5","yes","[    0.   526.  1032.  1370.  1483.  1430.  1431.  1434.  1433.  1437.
  1439.  1446.  1445.  1449.  1449.  1451.  1451.  1449.  1448.  1455.
  1454.  1450.  1453.  1450.  1450.  1450.  1451.  1452.  1451.  1449.
  1446.  1445.  1443.  1436.  1436.  1436.  1433.  1430.  1426.  1425.
  1422.  1420.  1419.  1415.  1411.  1412.  1407.  1406.  1405.  1402.
  1398.  1396.  1393.  1389.  1390.  1384.  1382.  1380.  1380.  1378.
  1376.  1375.  1369.  1368.  1370.  1368.  1373.  1373.  1375.  1371.
  1374.  1375.  1378.  1379.  1382.  1382.  1385.  1394.  1393.  1401.
  1402.  1403.  1407.  1412.  1415.  1417.  1421.  1421.  1425.  1430.
  1430.  1432.  1437.  1441.  1441.  1444.  1447.  1449.  1448.  1451.
  1456.  1458.  1456.  1458.  1463.  1466.   931.     0.     0.     0.
     0.     0.     0.   487.   920.  1330.  1505.  1578.  1512.  1500.
  1505.  1507.  1507.  1510.  1514.  1520.  1520.  1523.  1530.  1532.
  1534.  1539.  1543.  1546.  1548.  1555.  1556.  1562.  1568.  1571.
  1572.  1577.  1580.  1586.  1587.  1590.  1590.  1592.  1590.  1592.
  1594.  1601.  1602.  1601.  1600.  1604.  1607.  1611.  1614.  1615.
  1620.  1623.  1626.  1630.  1633.  1636.  1638.  1640.  1642.  1643.
  1642.  1645.  1651.  1652.  1649.  1648.  1654.  1659.  1661.  1659.
  1660.  1661.  1664.  1669.  1672.  1674.  1676.  1681.  1686.  1689.
  1690.  1692.  1700.  1700.  1704.  1709.  1713.  1715.  1717.  1721.
  1724.  1732.  1734.  1738.  1745.  1745.  1755.  1755.  1763.  1765.
  1769.  1773.  1782.  1780.  1796.  1536.     0.     0.     0.     0.
     0.     0.     0.   887.  1714.  1908.  2009.  1854.  1860.  1863.
  1868.  1874.  1883.  1887.  1890.  1895.  1903.  1904.  1909.  1911.
  1917.  1918.  1924.  1925.  1929.  1932.  1933.  1937.  1937.  1940.
  1942.  1942.  1940.  1939.  1935.  1930.  1918.  1911.  1904.  1895.
  1887.  1875.  1873.  1862.  1851.  1846.  1836.  1827.  1824.  1817.
  1806.  1798.  1790.  1790.  1782.  1774.  1771.  1764.  1762.  1754.
  1751.  1751.  1740.  1737.  1734.  1728.  1727.  1722.  1722.  1721.
  1718.  1717.  1717.  1716.  1715.  1714.  1720.  1721.  1722.  1725.
  1723.  1727.  1728.  1735.  1741.  1743.  1745.  1749.  1753.  1758.
  1765.  1770.  1774.  1781.  1784.  1790.  1792.  1799.  1801.  1807.
  1811.  1814.  1818.  1823.  1826.  1831.  1835.  1837.  1843.  1845.
  1848.  1846.  1851.  1852.  1853.  1853.  1855.  1855.  1856.  1858.
  1858.  1865.  1866.  1871.  1871.  1875.  1878.  1883.  1887.  1891.
  1897.  1904.  1905.  1910.  1916.  1922.  1921.  1928.  1930.  1935.
  1939.  1943.  1946.  1953.  1954.  1957.  1960.  1963.  1967.  1974.
  1973.  1976.  1983.  1987.  1983.  1989.  1996.  1995.  1997.  2005.
  2008.  2012.  2010.  2009.  2015.  2018.  2014.  2014.  2006.  2017.
  2028.   888.     0.     0.     0.     0.     0.     0.   758.  1335.]","2 + 4","0","space","NA","NA","space","601","NA","NA","601","LinregressResult(slope=0.68089100556878479, intercept=1542.0413533834585, rvalue=0.75503180131059444, pvalue=5.8680063713623806e-75, stderr=0.02963931529140559)","2","legacy","0.680891005569","1024","2","48000","-16","experiment","0.0,526.0,1032.0,1370.0,1483.0,1430.0,1431.0,1434.0,1433.0,1437.0,1439.0,1446.0,1445.0,1449.0,1449.0,1451.0,1451.0,1449.0,1448.0,1455.0,1454.0,1450.0,1453.0,1450.0,1450.0,1450.0,1451.0,1452.0,1451.0,1449.0,1446.0,1445.0,1443.0,1436.0,1436.0,1436.0,1433.0,1430.0,1426.0,1425.0,1422.0,1420.0,1419.0,1415.0,1411.0,1412.0,1407.0,1406.0,1405.0,1402.0,1398.0,1396.0,1393.0,1389.0,1390.0,1384.0,1382.0,1380.0,1380.0,1378.0,1376.0,1375.0,1369.0,1368.0,1370.0,1368.0,1373.0,1373.0,1375.0,1371.0,1374.0,1375.0,1378.0,1379.0,1382.0,1382.0,1385.0,1394.0,1393.0,1401.0,1402.0,1403.0,1407.0,1412.0,1415.0,1417.0,1421.0,1421.0,1425.0,1430.0,1430.0,1432.0,1437.0,1441.0,1441.0,1444.0,1447.0,1449.0,1448.0,1451.0,1456.0,1458.0,1456.0,1458.0,1463.0,1466.0,931.0,0.0,0.0,0.0,0.0,0.0,0.0,487.0,920.0,1330.0,1505.0,1578.0,1512.0,1500.0,1505.0,1507.0,1507.0,1510.0,1514.0,1520.0,1520.0,1523.0,1530.0,1532.0,1534.0,1539.0,1543.0,1546.0,1548.0,1555.0,1556.0,1562.0,1568.0,1571.0,1572.0,1577.0,1580.0,1586.0,1587.0,1590.0,1590.0,1592.0,1590.0,1592.0,1594.0,1601.0,1602.0,1601.0,1600.0,1604.0,1607.0,1611.0,1614.0,1615.0,1620.0,1623.0,1626.0,1630.0,1633.0,1636.0,1638.0,1640.0,1642.0,1643.0,1642.0,1645.0,1651.0,1652.0,1649.0,1648.0,1654.0,1659.0,1661.0,1659.0,1660.0,1661.0,1664.0,1669.0,1672.0,1674.0,1676.0,1681.0,1686.0,1689.0,1690.0,1692.0,1700.0,1700.0,1704.0,1709.0,1713.0,1715.0,1717.0,1721.0,1724.0,1732.0,1734.0,1738.0,1745.0,1745.0,1755.0,1755.0,1763.0,1765.0,1769.0,1773.0,1782.0,1780.0,1796.0,1536.0,0.0,0.0,0.0,0.0,0.0,0.0,0.0,887.0,1714.0,1908.0,2009.0,1854.0,1860.0,1863.0,1868.0,1874.0,1883.0,1887.0,1890.0,1895.0,1903.0,1904.0,1909.0,1911.0,1917.0,1918.0,1924.0,1925.0,1929.0,1932.0,1933.0,1937.0,1937.0,1940.0,1942.0,1942.0,1940.0,1939.0,1935.0,1930.0,1918.0,1911.0,1904.0,1895.0,1887.0,1875.0,1873.0,1862.0,1851.0,1846.0,1836.0,1827.0,1824.0,1817.0,1806.0,1798.0,1790.0,1790.0,1782.0,1774.0,1771.0,1764.0,1762.0,1754.0,1751.0,1751.0,1740.0,1737.0,1734.0,1728.0,1727.0,1722.0,1722.0,1721.0,1718.0,1717.0,1717.0,1716.0,1715.0,1714.0,1720.0,1721.0,1722.0,1725.0,1723.0,1727.0,1728.0,1735.0,1741.0,1743.0,1745.0,1749.0,1753.0,1758.0,1765.0,1770.0,1774.0,1781.0,1784.0,1790.0,1792.0,1799.0,1801.0,1807.0,1811.0,1814.0,1818.0,1823.0,1826.0,1831.0,1835.0,1837.0,1843.0,1845.0,1848.0,1846.0,1851.0,1852.0,1853.0,1853.0,1855.0,1855.0,1856.0,1858.0,1858.0,1865.0,1866.0,1871.0,1871.0,1875.0,1878.0,1883.0,1887.0,1891.0,1897.0,1904.0,1905.0,1910.0,1916.0,1922.0,1921.0,1928.0,1930.0,1935.0,1939.0,1943.0,1946.0,1953.0,1954.0,1957.0,1960.0,1963.0,1967.0,1974.0,1973.0,1976.0,1983.0,1987.0,1983.0,1989.0,1996.0,1995.0,1997.0,2005.0,2008.0,2012.0,2010.0,2009.0,2015.0,2018.0,2014.0,2014.0,2006.0,2017.0,2028.0,888.0,0.0,0.0,0.0,0.0,0.0,0.0,758.0,1335.0","22","even","96583","101591","5008","59997","96590","NA","57526","93208","NA","56884","NA","NA","2302","95083","NA","96591","2443","NA","NA","NA","101891","NA","93726","NA","101591","NA","94728","NA","92694","NA","57526","3045","NA","NA","101591","96583","56884","93726","NA","Extended template","0","0","0","yes","1024"
"undefined","undefined","undefined","NA","undefined","black","yes","xpyriment","legacy","legacy","0","uniform","undefined","undefined","0","4","NA","0","4","NA","0","0","0","0","4","NA","4","0","0","NA","NA","4","NA","4","NA","4","NA","4","NA","4","NA","0","0","0","0","4","4","0","4","NA","10/11/18 13:23:09","A template containing a practice and an experimental phase","easy","yes","Experiment.osexp","C:\Users\EEGExp\Desktop","no","mono","no","18","no","white","no","Ok","yes","768","legacy","4","4","0","C:/Users/EEGExp/Desktop/subject-22.csv","xpyriment","Kafkaesque Koffka","3.2.5","yes","[ 1850.  1850.  1845.  1842.  1838.  1836.  1835.  1837.  1836.  1835.
  1832.  1832.  1833.  1831.  1829.  1828.  1832.  1833.  1832.  1832.
  1830.  1831.  1834.  1834.  1835.  1832.  1831.  1833.  1831.  1834.
  1833.  1833.  1832.  1832.  1834.  1836.  1831.  1832.  1832.  1830.
  1823.  1824.  1824.  1846.  1516.   710.     0.     0.     0.     0.
     0.     0.     0.     0.     0.   813.  1782.  1904.  1837.  1835.
  1838.  1846.  1848.  1849.  1857.  1857.  1856.  1855.  1862.  1863.
  1863.  1861.  1862.  1865.  1868.  1874.  1873.  1877.  1879.  1879.
  1881.  1884.  1881.  1876.  1874.  1869.  1856.  1850.  1834.  1831.
  1810.  1803.  1786.  1775.  1765.  1751.  1738.  1728.  1714.  1704.
  1693.  1681.  1674.  1662.  1650.  1636.  1626.  1617.  1606.  1596.
  1591.  1579.  1569.  1565.  1556.  1547.  1540.  1538.  1531.  1526.
  1524.  1518.  1515.  1515.  1511.  1510.  1510.  1505.  1507.  1506.
  1505.  1506.  1509.  1508.  1513.  1513.  1513.  1513.  1515.  1518.
  1519.  1520.  1520.  1521.  1523.  1523.  1528.  1527.  1530.  1529.
  1534.  1535.  1539.  1539.  1540.  1545.  1544.  1547.  1549.  1549.
  1552.  1552.  1555.  1559.  1560.  1563.  1567.  1568.  1571.  1571.
  1577.  1575.  1575.  1583.  1582.  1586.  1587.  1591.  1593.  1596.
  1595.  1596.  1603.  1599.  1600.  1601.  1607.  1606.  1606.  1605.
  1608.  1607.  1605.  1607.  1606.  1606.  1607.  1605.  1607.  1604.
  1607.  1609.  1606.  1607.  1608.  1608.  1610.  1611.  1611.  1615.
  1615.  1615.  1615.  1617.  1614.  1615.  1616.  1619.  1622.  1622.
  1619.  1622.  1622.  1625.  1625.  1623.  1628.  1627.  1627.  1629.
  1630.  1633.  1633.  1635.  1636.  1642.  1642.  1641.  1648.  1650.
  1652.  1656.  1658.  1662.  1663.  1671.  1674.  1677.  1678.  1686.
  1688.  1691.  1695.  1696.  1702.  1704.  1706.  1709.  1713.  1715.
  1721.  1717.  1723.  1722.  1726.  1721.  1722.  1721.  1721.  1722.
  1723.  1725.  1725.  1718.  1721.  1722.  1724.  1721.  1723.  1724.
  1724.  1723.  1721.  1725.  1723.  1727.  1731.  1730.  1733.  1733.
  1737.  1740.  1742.  1743.  1745.  1753.  1755.  1755.  1757.  1758.
  1762.  1765.  1765.  1765.  1766.  1767.  1768.  1769.  1768.  1769.
  1769.  1767.  1767.  1774.  1774.  1776.  1771.  1775.  1775.  1774.
  1779.  1780.  1780.  1783.  1785.  1785.  1784.  1788.  1789.  1792.
  1796.  1797.  1797.  1800.  1800.  1803.  1806.  1803.  1810.  1807.
  1808.  1810.  1813.  1818.  1816.  1816.  1818.  1818.  1818.  1819.
  1820.  1820.  1820.  1821.  1824.  1825.  1822.  1819.  1818.  1821.
  1818.  1817.  1816.  1820.  1820.  1820.  1821.  1821.  1820.  1824.
  1824.  1827.  1830.  1832.  1829.  1832.  1833.  1836.  1835.  1836.
  1832.  1836.  1834.  1831.  1830.  1832.  1824.  1816.  1813.  1807.
  1805.  1795.  1794.  1786.  1778.  1776.  1765.  1755.  1754.  1747.]","3 + 7","0","space","NA","NA","space","601","NA","NA","601","LinregressResult(slope=1.3223895149344687, intercept=1308.940902255639, rvalue=0.35634074113350422, pvalue=2.0259612283360903e-13, stderr=0.17380601254679937)","2","legacy","1.32238951493","1024","2","48000","-16","experiment","1850.0,1850.0,1845.0,1842.0,1838.0,1836.0,1835.0,1837.0,1836.0,1835.0,1832.0,1832.0,1833.0,1831.0,1829.0,1828.0,1832.0,1833.0,1832.0,1832.0,1830.0,1831.0,1834.0,1834.0,1835.0,1832.0,1831.0,1833.0,1831.0,1834.0,1833.0,1833.0,1832.0,1832.0,1834.0,1836.0,1831.0,1832.0,1832.0,1830.0,1823.0,1824.0,1824.0,1846.0,1516.0,710.0,0.0,0.0,0.0,0.0,0.0,0.0,0.0,0.0,0.0,813.0,1782.0,1904.0,1837.0,1835.0,1838.0,1846.0,1848.0,1849.0,1857.0,1857.0,1856.0,1855.0,1862.0,1863.0,1863.0,1861.0,1862.0,1865.0,1868.0,1874.0,1873.0,1877.0,1879.0,1879.0,1881.0,1884.0,1881.0,1876.0,1874.0,1869.0,1856.0,1850.0,1834.0,1831.0,1810.0,1803.0,1786.0,1775.0,1765.0,1751.0,1738.0,1728.0,1714.0,1704.0,1693.0,1681.0,1674.0,1662.0,1650.0,1636.0,1626.0,1617.0,1606.0,1596.0,1591.0,1579.0,1569.0,1565.0,1556.0,1547.0,1540.0,1538.0,1531.0,1526.0,1524.0,1518.0,1515.0,1515.0,1511.0,1510.0,1510.0,1505.0,1507.0,1506.0,1505.0,1506.0,1509.0,1508.0,1513.0,1513.0,1513.0,1513.0,1515.0,1518.0,1519.0,1520.0,1520.0,1521.0,1523.0,1523.0,1528.0,1527.0,1530.0,1529.0,1534.0,1535.0,1539.0,1539.0,1540.0,1545.0,1544.0,1547.0,1549.0,1549.0,1552.0,1552.0,1555.0,1559.0,1560.0,1563.0,1567.0,1568.0,1571.0,1571.0,1577.0,1575.0,1575.0,1583.0,1582.0,1586.0,1587.0,1591.0,1593.0,1596.0,1595.0,1596.0,1603.0,1599.0,1600.0,1601.0,1607.0,1606.0,1606.0,1605.0,1608.0,1607.0,1605.0,1607.0,1606.0,1606.0,1607.0,1605.0,1607.0,1604.0,1607.0,1609.0,1606.0,1607.0,1608.0,1608.0,1610.0,1611.0,1611.0,1615.0,1615.0,1615.0,1615.0,1617.0,1614.0,1615.0,1616.0,1619.0,1622.0,1622.0,1619.0,1622.0,1622.0,1625.0,1625.0,1623.0,1628.0,1627.0,1627.0,1629.0,1630.0,1633.0,1633.0,1635.0,1636.0,1642.0,1642.0,1641.0,1648.0,1650.0,1652.0,1656.0,1658.0,1662.0,1663.0,1671.0,1674.0,1677.0,1678.0,1686.0,1688.0,1691.0,1695.0,1696.0,1702.0,1704.0,1706.0,1709.0,1713.0,1715.0,1721.0,1717.0,1723.0,1722.0,1726.0,1721.0,1722.0,1721.0,1721.0,1722.0,1723.0,1725.0,1725.0,1718.0,1721.0,1722.0,1724.0,1721.0,1723.0,1724.0,1724.0,1723.0,1721.0,1725.0,1723.0,1727.0,1731.0,1730.0,1733.0,1733.0,1737.0,1740.0,1742.0,1743.0,1745.0,1753.0,1755.0,1755.0,1757.0,1758.0,1762.0,1765.0,1765.0,1765.0,1766.0,1767.0,1768.0,1769.0,1768.0,1769.0,1769.0,1767.0,1767.0,1774.0,1774.0,1776.0,1771.0,1775.0,1775.0,1774.0,1779.0,1780.0,1780.0,1783.0,1785.0,1785.0,1784.0,1788.0,1789.0,1792.0,1796.0,1797.0,1797.0,1800.0,1800.0,1803.0,1806.0,1803.0,1810.0,1807.0,1808.0,1810.0,1813.0,1818.0,1816.0,1816.0,1818.0,1818.0,1818.0,1819.0,1820.0,1820.0,1820.0,1821.0,1824.0,1825.0,1822.0,1819.0,1818.0,1821.0,1818.0,1817.0,1816.0,1820.0,1820.0,1820.0,1821.0,1821.0,1820.0,1824.0,1824.0,1827.0,1830.0,1832.0,1829.0,1832.0,1833.0,1836.0,1835.0,1836.0,1832.0,1836.0,1834.0,1831.0,1830.0,1832.0,1824.0,1816.0,1813.0,1807.0,1805.0,1795.0,1794.0,1786.0,1778.0,1776.0,1765.0,1755.0,1754.0,1747.0","22","even","106159","111165","5006","59997","106164","NA","57526","102418","NA","56884","NA","NA","2302","104658","NA","106165","2443","NA","NA","NA","111465","NA","102936","NA","111165","NA","104297","NA","101903","NA","57526","3045","NA","NA","111165","106159","56884","102936","NA","Extended template","0","0","0","yes","1024"
"undefined","undefined","undefined","NA","undefined","black","yes","xpyriment","legacy","legacy","0","uniform","undefined","undefined","0","5","NA","0","5","NA","0","0","0","0","5","NA","5","0","0","NA","NA","5","NA","5","NA","5","NA","5","NA","5","NA","0","0","0","0","5","5","0","5","NA","10/11/18 13:23:09","A template containing a practice and an experimental phase","medium","yes","Experiment.osexp","C:\Users\EEGExp\Desktop","no","mono","no","18","no","white","no","Ok","yes","768","legacy","5","5","0","C:/Users/EEGExp/Desktop/subject-22.csv","xpyriment","Kafkaesque Koffka","3.2.5","yes","[ 1818.  1812.  1812.  1812.  1804.  1802.  1804.  1799.  1804.  1796.
  1797.  1802.  1802.  1800.  1802.  1803.  1803.  1802.  1802.  1801.
  1796.  1798.  1797.  1798.  1795.  1789.  1790.  1785.  1786.  1783.
  1783.  1781.  1776.  1775.  1773.  1768.  1770.  1765.  1764.  1765.
  1758.  1758.  1762.  1759.  1760.  1756.  1758.  1757.  1757.  1762.
  1759.  1758.  1758.  1760.  1761.  1762.  1762.  1764.  1764.  1770.
  1770.  1769.  1769.  1769.  1768.  1769.  1766.  1767.  1768.  1770.
  1763.  1760.  1763.  1760.  1758.  1757.  1754.  1754.  1750.  1748.
  1747.  1746.  1747.  1740.  1736.  1738.  1735.  1730.  1730.  1730.
  1729.  1724.  1720.  1722.  1715.  1719.  1714.  1711.  1710.  1711.
  1707.  1706.  1708.  1709.  1702.  1703.  1703.  1702.  1702.  1704.
  1697.  1699.  1696.  1697.  1698.  1697.  1691.  1689.  1688.  1688.
  1686.  1685.  1686.  1683.  1680.  1677.  1674.  1672.  1672.  1667.
  1665.  1664.  1661.  1661.  1664.  1663.  1660.  1661.  1665.  1666.
  1666.  1670.  1671.  1671.  1675.  1674.  1676.  1679.  1680.  1682.
  1684.  1682.  1684.  1684.  1683.  1682.  1681.  1678.  1674.  1674.
  1671.  1670.  1667.  1661.  1664.  1660.  1658.  1654.  1652.  1653.
  1654.  1651.  1651.  1653.  1654.  1649.  1646.  1645.  1647.  1649.
  1651.  1653.  1656.  1658.  1653.  1656.  1655.  1656.  1655.  1656.
  1660.  1657.  1658.  1659.  1658.  1656.  1654.  1654.  1654.  1653.
  1653.  1651.  1650.  1650.  1649.  1652.  1648.  1645.  1643.  1643.
  1637.  1631.  1630.  1627.  1628.  1625.  1622.  1625.  1619.  1617.
  1616.  1615.  1611.  1609.  1611.  1610.  1611.  1609.  1611.  1613.
  1611.  1616.  1616.  1615.  1615.  1615.  1618.  1618.  1620.  1616.
  1615.  1619.  1616.  1616.  1617.  1615.  1611.  1612.  1613.  1607.
  1604.  1599.  1601.  1598.  1593.  1595.  1593.  1588.  1586.  1586.
  1586.  1585.  1586.  1579.  1579.  1577.  1578.  1579.  1578.  1576.
  1573.  1574.  1572.  1573.  1573.  1572.  1574.  1570.  1571.  1572.
  1570.  1570.  1571.  1566.  1564.  1569.  1567.  1565.  1564.  1565.
  1565.  1563.  1567.  1564.  1566.  1566.  1563.  1567.  1564.  1566.
  1567.  1571.  1570.  1573.  1573.  1574.  1573.  1576.  1578.  1580.
  1578.  1582.  1582.  1584.  1589.  1588.  1592.  1592.  1594.  1597.
  1601.  1596.  1600.  1604.  1604.  1604.  1603.  1605.  1604.  1607.
  1605.  1605.  1604.  1601.  1605.  1603.  1603.  1602.  1599.  1600.
  1599.  1598.  1596.  1593.  1593.  1595.  1593.  1594.  1594.  1596.
  1596.  1592.  1594.  1594.  1597.  1595.  1598.  1598.  1599.  1598.
  1598.  1602.  1600.  1605.  1603.  1604.  1603.  1604.  1606.  1607.
  1608.  1609.  1612.  1612.  1610.  1611.  1610.  1609.  1610.  1609.
  1608.  1606.  1609.  1610.  1609.  1609.  1610.  1610.  1608.  1608.
  1610.  1607.  1609.  1609.  1610.  1608.  1612.  1614.  1615.  1618.]","6x = 12","0","space","NA","NA","space","601","NA","NA","601","LinregressResult(slope=0.57981362383514901, intercept=1555.9273684210527, rvalue=0.23437776580235556, pvalue=2.1471552464636337e-06, stderr=0.12054849241080849)","2","legacy","0.579813623835","1024","2","48000","-16","experiment","1818.0,1812.0,1812.0,1812.0,1804.0,1802.0,1804.0,1799.0,1804.0,1796.0,1797.0,1802.0,1802.0,1800.0,1802.0,1803.0,1803.0,1802.0,1802.0,1801.0,1796.0,1798.0,1797.0,1798.0,1795.0,1789.0,1790.0,1785.0,1786.0,1783.0,1783.0,1781.0,1776.0,1775.0,1773.0,1768.0,1770.0,1765.0,1764.0,1765.0,1758.0,1758.0,1762.0,1759.0,1760.0,1756.0,1758.0,1757.0,1757.0,1762.0,1759.0,1758.0,1758.0,1760.0,1761.0,1762.0,1762.0,1764.0,1764.0,1770.0,1770.0,1769.0,1769.0,1769.0,1768.0,1769.0,1766.0,1767.0,1768.0,1770.0,1763.0,1760.0,1763.0,1760.0,1758.0,1757.0,1754.0,1754.0,1750.0,1748.0,1747.0,1746.0,1747.0,1740.0,1736.0,1738.0,1735.0,1730.0,1730.0,1730.0,1729.0,1724.0,1720.0,1722.0,1715.0,1719.0,1714.0,1711.0,1710.0,1711.0,1707.0,1706.0,1708.0,1709.0,1702.0,1703.0,1703.0,1702.0,1702.0,1704.0,1697.0,1699.0,1696.0,1697.0,1698.0,1697.0,1691.0,1689.0,1688.0,1688.0,1686.0,1685.0,1686.0,1683.0,1680.0,1677.0,1674.0,1672.0,1672.0,1667.0,1665.0,1664.0,1661.0,1661.0,1664.0,1663.0,1660.0,1661.0,1665.0,1666.0,1666.0,1670.0,1671.0,1671.0,1675.0,1674.0,1676.0,1679.0,1680.0,1682.0,1684.0,1682.0,1684.0,1684.0,1683.0,1682.0,1681.0,1678.0,1674.0,1674.0,1671.0,1670.0,1667.0,1661.0,1664.0,1660.0,1658.0,1654.0,1652.0,1653.0,1654.0,1651.0,1651.0,1653.0,1654.0,1649.0,1646.0,1645.0,1647.0,1649.0,1651.0,1653.0,1656.0,1658.0,1653.0,1656.0,1655.0,1656.0,1655.0,1656.0,1660.0,1657.0,1658.0,1659.0,1658.0,1656.0,1654.0,1654.0,1654.0,1653.0,1653.0,1651.0,1650.0,1650.0,1649.0,1652.0,1648.0,1645.0,1643.0,1643.0,1637.0,1631.0,1630.0,1627.0,1628.0,1625.0,1622.0,1625.0,1619.0,1617.0,1616.0,1615.0,1611.0,1609.0,1611.0,1610.0,1611.0,1609.0,1611.0,1613.0,1611.0,1616.0,1616.0,1615.0,1615.0,1615.0,1618.0,1618.0,1620.0,1616.0,1615.0,1619.0,1616.0,1616.0,1617.0,1615.0,1611.0,1612.0,1613.0,1607.0,1604.0,1599.0,1601.0,1598.0,1593.0,1595.0,1593.0,1588.0,1586.0,1586.0,1586.0,1585.0,1586.0,1579.0,1579.0,1577.0,1578.0,1579.0,1578.0,1576.0,1573.0,1574.0,1572.0,1573.0,1573.0,1572.0,1574.0,1570.0,1571.0,1572.0,1570.0,1570.0,1571.0,1566.0,1564.0,1569.0,1567.0,1565.0,1564.0,1565.0,1565.0,1563.0,1567.0,1564.0,1566.0,1566.0,1563.0,1567.0,1564.0,1566.0,1567.0,1571.0,1570.0,1573.0,1573.0,1574.0,1573.0,1576.0,1578.0,1580.0,1578.0,1582.0,1582.0,1584.0,1589.0,1588.0,1592.0,1592.0,1594.0,1597.0,1601.0,1596.0,1600.0,1604.0,1604.0,1604.0,1603.0,1605.0,1604.0,1607.0,1605.0,1605.0,1604.0,1601.0,1605.0,1603.0,1603.0,1602.0,1599.0,1600.0,1599.0,1598.0,1596.0,1593.0,1593.0,1595.0,1593.0,1594.0,1594.0,1596.0,1596.0,1592.0,1594.0,1594.0,1597.0,1595.0,1598.0,1598.0,1599.0,1598.0,1598.0,1602.0,1600.0,1605.0,1603.0,1604.0,1603.0,1604.0,1606.0,1607.0,1608.0,1609.0,1612.0,1612.0,1610.0,1611.0,1610.0,1609.0,1610.0,1609.0,1608.0,1606.0,1609.0,1610.0,1609.0,1609.0,1610.0,1610.0,1608.0,1608.0,1610.0,1607.0,1609.0,1609.0,1610.0,1608.0,1612.0,1614.0,1615.0,1618.0","22","even","115677","120684","5007","59997","115683","NA","57526","111996","NA","56884","NA","NA","2302","114176","NA","115684","2443","NA","NA","NA","120984","NA","112520","NA","120684","NA","113820","NA","111481","NA","57526","3045","NA","NA","120684","115677","56884","112520","NA","Extended template","0","0","0","yes","1024"
"undefined","undefined","undefined","NA","undefined","black","yes","xpyriment","legacy","legacy","0","uniform","undefined","undefined","0","6","NA","0","6","NA","0","0","0","0","6","NA","6","0","0","NA","NA","6","NA","6","NA","6","NA","6","NA","6","NA","0","0","0","0","6","6","0","6","NA","10/11/18 13:23:09","A template containing a practice and an experimental phase","medium","yes","Experiment.osexp","C:\Users\EEGExp\Desktop","no","mono","no","18","no","white","no","Ok","yes","768","legacy","6","6","0","C:/Users/EEGExp/Desktop/subject-22.csv","xpyriment","Kafkaesque Koffka","3.2.5","yes","[ 1559.  1557.  1560.  1562.  1561.  1560.  1560.  1562.  1562.  1563.
  1562.  1564.  1562.  1561.  1560.  1560.  1557.  1557.  1557.  1556.
  1553.  1553.  1554.  1551.  1550.  1553.  1553.  1547.  1544.  1543.
  1544.  1539.  1537.  1533.  1536.  1536.  1532.  1529.  1528.  1528.
  1530.  1530.  1527.  1525.  1524.  1523.  1524.  1527.  1526.  1526.
  1524.  1527.  1529.  1529.  1529.  1532.  1530.  1532.  1535.  1536.
  1533.  1535.  1542.  1540.  1546.  1547.  1544.  1545.  1546.  1548.
  1550.  1549.  1551.  1553.  1555.  1555.  1558.  1558.  1560.  1567.
  1569.  1570.  1572.  1573.  1573.  1577.  1580.  1581.  1584.  1582.
  1585.  1585.  1586.  1588.  1582.  1584.  1586.  1583.  1582.  1578.
  1576.  1576.  1577.  1574.  1573.  1573.  1572.  1572.  1570.  1568.
  1567.  1568.  1566.  1568.  1566.  1567.  1570.  1571.  1568.  1569.
  1566.  1566.  1566.  1570.  1562.  1563.  1560.  1560.  1561.  1558.
  1553.  1555.  1551.  1550.  1547.  1547.  1546.  1547.  1547.  1548.
  1547.  1548.  1548.  1546.  1548.  1550.  1550.  1553.  1555.  1555.
  1557.  1562.  1562.  1565.  1566.  1565.  1566.  1571.  1572.  1575.
  1576.  1581.  1585.  1582.  1589.  1590.  1588.  1594.  1595.  1598.
  1596.  1597.  1597.  1598.  1595.  1594.  1595.  1591.  1590.  1588.
  1591.  1584.  1584.  1583.  1583.  1581.  1579.  1579.  1578.  1577.
  1577.  1577.  1577.  1575.  1574.  1572.  1573.  1572.  1569.  1568.
  1567.  1566.  1570.  1571.  1571.  1569.  1568.  1567.  1565.  1564.
  1560.  1561.  1561.  1562.  1562.  1564.  1560.  1554.  1557.  1554.
  1553.  1556.  1556.  1553.  1549.  1550.  1549.  1546.  1548.  1548.
  1548.  1546.  1543.  1542.  1541.  1543.  1538.  1538.  1541.  1539.
  1535.  1534.  1533.  1533.  1536.  1534.  1533.  1536.  1534.  1536.
  1536.  1538.  1538.  1540.  1542.  1542.  1540.  1543.  1543.  1547.
  1544.  1542.  1543.  1547.  1547.  1548.  1547.  1547.  1548.  1547.
  1547.  1546.  1549.  1544.  1545.  1544.  1547.  1545.  1546.  1545.
  1548.  1549.  1550.  1550.  1550.  1549.  1549.  1548.  1547.  1547.
  1544.  1549.  1545.  1542.  1540.  1538.  1539.  1533.  1535.  1534.
  1532.  1533.  1532.  1533.  1535.  1530.  1529.  1530.  1530.  1533.
  1531.  1532.  1533.  1533.  1534.  1535.  1535.  1536.  1536.  1537.
  1538.  1541.  1542.  1540.  1541.  1542.  1539.  1539.  1539.  1542.
  1538.  1541.  1540.  1544.  1539.  1542.  1537.  1540.  1537.  1539.
  1542.  1540.  1541.  1538.  1543.  1538.  1541.  1541.  1541.  1541.
  1544.  1542.  1544.  1545.  1542.  1540.  1539.  1541.  1538.  1537.
  1538.  1538.  1539.  1539.  1538.  1538.  1537.  1538.  1536.  1535.
  1535.  1533.  1535.  1532.  1533.  1536.  1537.  1535.  1534.  1532.
  1534.  1535.  1528.  1527.  1528.  1532.  1528.  1525.  1527.  1523.
  1525.  1522.  1518.  1520.  1520.  1519.  1514.  1515.  1513.  1511.]","7x = 28","0","space","NA","NA","space","601","NA","NA","601","LinregressResult(slope=-0.57119185119907001, intercept=1773.9214661654137, rvalue=-0.9131355405991175, pvalue=3.4511090067881926e-157, stderr=0.012782009940172437)","2","legacy","-0.571191851199","1024","2","48000","-16","experiment","1559.0,1557.0,1560.0,1562.0,1561.0,1560.0,1560.0,1562.0,1562.0,1563.0,1562.0,1564.0,1562.0,1561.0,1560.0,1560.0,1557.0,1557.0,1557.0,1556.0,1553.0,1553.0,1554.0,1551.0,1550.0,1553.0,1553.0,1547.0,1544.0,1543.0,1544.0,1539.0,1537.0,1533.0,1536.0,1536.0,1532.0,1529.0,1528.0,1528.0,1530.0,1530.0,1527.0,1525.0,1524.0,1523.0,1524.0,1527.0,1526.0,1526.0,1524.0,1527.0,1529.0,1529.0,1529.0,1532.0,1530.0,1532.0,1535.0,1536.0,1533.0,1535.0,1542.0,1540.0,1546.0,1547.0,1544.0,1545.0,1546.0,1548.0,1550.0,1549.0,1551.0,1553.0,1555.0,1555.0,1558.0,1558.0,1560.0,1567.0,1569.0,1570.0,1572.0,1573.0,1573.0,1577.0,1580.0,1581.0,1584.0,1582.0,1585.0,1585.0,1586.0,1588.0,1582.0,1584.0,1586.0,1583.0,1582.0,1578.0,1576.0,1576.0,1577.0,1574.0,1573.0,1573.0,1572.0,1572.0,1570.0,1568.0,1567.0,1568.0,1566.0,1568.0,1566.0,1567.0,1570.0,1571.0,1568.0,1569.0,1566.0,1566.0,1566.0,1570.0,1562.0,1563.0,1560.0,1560.0,1561.0,1558.0,1553.0,1555.0,1551.0,1550.0,1547.0,1547.0,1546.0,1547.0,1547.0,1548.0,1547.0,1548.0,1548.0,1546.0,1548.0,1550.0,1550.0,1553.0,1555.0,1555.0,1557.0,1562.0,1562.0,1565.0,1566.0,1565.0,1566.0,1571.0,1572.0,1575.0,1576.0,1581.0,1585.0,1582.0,1589.0,1590.0,1588.0,1594.0,1595.0,1598.0,1596.0,1597.0,1597.0,1598.0,1595.0,1594.0,1595.0,1591.0,1590.0,1588.0,1591.0,1584.0,1584.0,1583.0,1583.0,1581.0,1579.0,1579.0,1578.0,1577.0,1577.0,1577.0,1577.0,1575.0,1574.0,1572.0,1573.0,1572.0,1569.0,1568.0,1567.0,1566.0,1570.0,1571.0,1571.0,1569.0,1568.0,1567.0,1565.0,1564.0,1560.0,1561.0,1561.0,1562.0,1562.0,1564.0,1560.0,1554.0,1557.0,1554.0,1553.0,1556.0,1556.0,1553.0,1549.0,1550.0,1549.0,1546.0,1548.0,1548.0,1548.0,1546.0,1543.0,1542.0,1541.0,1543.0,1538.0,1538.0,1541.0,1539.0,1535.0,1534.0,1533.0,1533.0,1536.0,1534.0,1533.0,1536.0,1534.0,1536.0,1536.0,1538.0,1538.0,1540.0,1542.0,1542.0,1540.0,1543.0,1543.0,1547.0,1544.0,1542.0,1543.0,1547.0,1547.0,1548.0,1547.0,1547.0,1548.0,1547.0,1547.0,1546.0,1549.0,1544.0,1545.0,1544.0,1547.0,1545.0,1546.0,1545.0,1548.0,1549.0,1550.0,1550.0,1550.0,1549.0,1549.0,1548.0,1547.0,1547.0,1544.0,1549.0,1545.0,1542.0,1540.0,1538.0,1539.0,1533.0,1535.0,1534.0,1532.0,1533.0,1532.0,1533.0,1535.0,1530.0,1529.0,1530.0,1530.0,1533.0,1531.0,1532.0,1533.0,1533.0,1534.0,1535.0,1535.0,1536.0,1536.0,1537.0,1538.0,1541.0,1542.0,1540.0,1541.0,1542.0,1539.0,1539.0,1539.0,1542.0,1538.0,1541.0,1540.0,1544.0,1539.0,1542.0,1537.0,1540.0,1537.0,1539.0,1542.0,1540.0,1541.0,1538.0,1543.0,1538.0,1541.0,1541.0,1541.0,1541.0,1544.0,1542.0,1544.0,1545.0,1542.0,1540.0,1539.0,1541.0,1538.0,1537.0,1538.0,1538.0,1539.0,1539.0,1538.0,1538.0,1537.0,1538.0,1536.0,1535.0,1535.0,1533.0,1535.0,1532.0,1533.0,1536.0,1537.0,1535.0,1534.0,1532.0,1534.0,1535.0,1528.0,1527.0,1528.0,1532.0,1528.0,1525.0,1527.0,1523.0,1525.0,1522.0,1518.0,1520.0,1520.0,1519.0,1514.0,1515.0,1513.0,1511.0","22","even","124933","129940","5007","59997","124939","NA","57526","121517","NA","56884","NA","NA","2302","123433","NA","124940","2443","NA","NA","NA","130240","NA","122039","NA","129940","NA","123070","NA","121002","NA","57526","3045","NA","NA","129940","124933","56884","122039","NA","Extended template","0","0","0","yes","1024"
"undefined","undefined","undefined","NA","undefined","black","yes","xpyriment","legacy","legacy","0","uniform","undefined","undefined","0","7","NA","0","7","NA","0","0","0","0","7","NA","7","0","0","NA","NA","7","NA","7","NA","7","NA","7","NA","7","NA","0","0","0","0","7","7","0","7","NA","10/11/18 13:23:09","A template containing a practice and an experimental phase","medium","yes","Experiment.osexp","C:\Users\EEGExp\Desktop","no","mono","no","18","no","white","no","Ok","yes","768","legacy","7","7","0","C:/Users/EEGExp/Desktop/subject-22.csv","xpyriment","Kafkaesque Koffka","3.2.5","yes","[ 1683.  1680.  1678.  1675.  1676.  1676.  1677.  1676.  1672.  1671.
  1674.  1673.  1673.  1672.  1675.  1680.  1680.  1684.  1688.  1689.
  1690.  1690.  1691.  1699.  1699.  1700.  1706.  1707.  1709.  1711.
  1716.  1717.  1719.  1716.  1720.  1719.  1719.  1720.  1721.  1721.
  1718.  1715.  1715.  1719.  1714.  1716.  1716.  1715.  1721.  1720.
  1724.  1721.  1724.  1726.  1726.  1728.  1731.  1732.  1732.  1735.
  1737.  1739.  1735.  1735.  1739.  1737.  1739.  1737.  1736.  1736.
  1735.  1734.  1733.  1730.  1731.  1731.  1730.  1730.  1730.  1727.
  1726.  1723.  1724.  1725.  1725.  1724.  1726.  1725.  1728.  1728.
  1727.  1724.  1724.  1723.  1724.  1721.  1721.  1720.  1719.  1719.
  1719.  1719.  1716.  1716.  1714.  1712.  1715.  1713.  1711.  1712.
  1713.  1711.  1713.  1711.  1710.  1707.  1710.  1707.  1708.  1705.
  1699.  1699.  1700.  1697.  1697.  1692.  1691.  1695.  1696.  1691.
  1688.  1692.  1688.  1687.  1684.  1686.  1687.  1683.  1685.  1687.
  1688.  1687.  1686.  1684.  1688.  1684.  1685.  1684.  1688.  1687.
  1681.  1686.  1690.  1690.  1685.  1686.  1689.  1690.  1691.  1687.
  1689.  1686.  1686.  1687.  1687.  1686.  1680.  1680.  1681.  1676.
  1671.  1671.  1669.  1666.  1664.  1660.  1655.  1658.  1654.  1655.
  1655.  1653.  1649.  1651.  1648.  1649.  1648.  1649.  1644.  1650.
  1652.  1654.  1653.  1652.  1656.  1657.  1654.  1657.  1657.  1655.
  1656.  1655.  1659.  1659.  1654.  1655.  1657.  1655.  1652.  1652.
  1646.  1647.  1648.  1642.  1640.  1641.  1640.  1638.  1638.  1634.
  1634.  1631.  1630.  1628.  1630.  1627.  1625.  1625.  1626.  1625.
  1625.  1626.  1626.  1625.  1627.  1623.  1629.  1631.  1627.  1630.
  1626.  1630.  1625.  1628.  1627.  1622.  1627.  1623.  1621.  1623.
  1617.  1620.  1619.  1614.  1613.  1615.  1614.  1613.  1610.  1610.
  1611.  1613.  1614.  1611.  1611.  1614.  1614.  1613.  1616.  1617.
  1622.  1626.  1625.  1625.  1632.  1633.  1638.  1640.  1639.  1643.
  1644.  1646.  1647.  1648.  1649.  1650.  1649.  1653.  1648.  1650.
  1650.  1648.  1650.  1648.  1645.  1643.  1640.  1634.  1637.  1632.
  1631.  1626.  1624.  1618.  1617.  1617.  1610.  1609.  1608.  1606.
  1600.  1600.  1597.  1598.  1595.  1595.  1594.  1595.  1597.  1598.
  1598.  1597.  1596.  1596.  1597.  1599.  1600.  1596.  1594.  1597.
  1595.  1594.  1593.  1591.  1588.  1587.  1589.  1586.  1589.  1588.
  1585.  1585.  1585.  1590.  1586.  1586.  1582.  1583.  1582.  1582.
  1582.  1582.  1583.  1585.  1583.  1584.  1584.  1582.  1586.  1586.
  1582.  1589.  1590.  1588.  1589.  1591.  1587.  1589.  1589.  1591.
  1597.  1591.  1593.  1595.  1598.  1597.  1602.  1604.  1609.  1610.
  1615.  1614.  1613.  1621.  1620.  1620.  1619.  1618.  1619.  1620.
  1613.  1614.  1612.  1608.  1607.  1607.  1603.  1601.  1600.  1599.]","4x = 16","0","space","NA","NA","space","601","NA","NA","601","LinregressResult(slope=-0.06827789548684679, intercept=1564.8772180451128, rvalue=-0.42579845063492505, pvalue=4.7766851829857562e-19, stderr=0.0072727015010574806)","2","legacy","-0.0682778954868","1024","2","48000","-16","experiment","1683.0,1680.0,1678.0,1675.0,1676.0,1676.0,1677.0,1676.0,1672.0,1671.0,1674.0,1673.0,1673.0,1672.0,1675.0,1680.0,1680.0,1684.0,1688.0,1689.0,1690.0,1690.0,1691.0,1699.0,1699.0,1700.0,1706.0,1707.0,1709.0,1711.0,1716.0,1717.0,1719.0,1716.0,1720.0,1719.0,1719.0,1720.0,1721.0,1721.0,1718.0,1715.0,1715.0,1719.0,1714.0,1716.0,1716.0,1715.0,1721.0,1720.0,1724.0,1721.0,1724.0,1726.0,1726.0,1728.0,1731.0,1732.0,1732.0,1735.0,1737.0,1739.0,1735.0,1735.0,1739.0,1737.0,1739.0,1737.0,1736.0,1736.0,1735.0,1734.0,1733.0,1730.0,1731.0,1731.0,1730.0,1730.0,1730.0,1727.0,1726.0,1723.0,1724.0,1725.0,1725.0,1724.0,1726.0,1725.0,1728.0,1728.0,1727.0,1724.0,1724.0,1723.0,1724.0,1721.0,1721.0,1720.0,1719.0,1719.0,1719.0,1719.0,1716.0,1716.0,1714.0,1712.0,1715.0,1713.0,1711.0,1712.0,1713.0,1711.0,1713.0,1711.0,1710.0,1707.0,1710.0,1707.0,1708.0,1705.0,1699.0,1699.0,1700.0,1697.0,1697.0,1692.0,1691.0,1695.0,1696.0,1691.0,1688.0,1692.0,1688.0,1687.0,1684.0,1686.0,1687.0,1683.0,1685.0,1687.0,1688.0,1687.0,1686.0,1684.0,1688.0,1684.0,1685.0,1684.0,1688.0,1687.0,1681.0,1686.0,1690.0,1690.0,1685.0,1686.0,1689.0,1690.0,1691.0,1687.0,1689.0,1686.0,1686.0,1687.0,1687.0,1686.0,1680.0,1680.0,1681.0,1676.0,1671.0,1671.0,1669.0,1666.0,1664.0,1660.0,1655.0,1658.0,1654.0,1655.0,1655.0,1653.0,1649.0,1651.0,1648.0,1649.0,1648.0,1649.0,1644.0,1650.0,1652.0,1654.0,1653.0,1652.0,1656.0,1657.0,1654.0,1657.0,1657.0,1655.0,1656.0,1655.0,1659.0,1659.0,1654.0,1655.0,1657.0,1655.0,1652.0,1652.0,1646.0,1647.0,1648.0,1642.0,1640.0,1641.0,1640.0,1638.0,1638.0,1634.0,1634.0,1631.0,1630.0,1628.0,1630.0,1627.0,1625.0,1625.0,1626.0,1625.0,1625.0,1626.0,1626.0,1625.0,1627.0,1623.0,1629.0,1631.0,1627.0,1630.0,1626.0,1630.0,1625.0,1628.0,1627.0,1622.0,1627.0,1623.0,1621.0,1623.0,1617.0,1620.0,1619.0,1614.0,1613.0,1615.0,1614.0,1613.0,1610.0,1610.0,1611.0,1613.0,1614.0,1611.0,1611.0,1614.0,1614.0,1613.0,1616.0,1617.0,1622.0,1626.0,1625.0,1625.0,1632.0,1633.0,1638.0,1640.0,1639.0,1643.0,1644.0,1646.0,1647.0,1648.0,1649.0,1650.0,1649.0,1653.0,1648.0,1650.0,1650.0,1648.0,1650.0,1648.0,1645.0,1643.0,1640.0,1634.0,1637.0,1632.0,1631.0,1626.0,1624.0,1618.0,1617.0,1617.0,1610.0,1609.0,1608.0,1606.0,1600.0,1600.0,1597.0,1598.0,1595.0,1595.0,1594.0,1595.0,1597.0,1598.0,1598.0,1597.0,1596.0,1596.0,1597.0,1599.0,1600.0,1596.0,1594.0,1597.0,1595.0,1594.0,1593.0,1591.0,1588.0,1587.0,1589.0,1586.0,1589.0,1588.0,1585.0,1585.0,1585.0,1590.0,1586.0,1586.0,1582.0,1583.0,1582.0,1582.0,1582.0,1582.0,1583.0,1585.0,1583.0,1584.0,1584.0,1582.0,1586.0,1586.0,1582.0,1589.0,1590.0,1588.0,1589.0,1591.0,1587.0,1589.0,1589.0,1591.0,1597.0,1591.0,1593.0,1595.0,1598.0,1597.0,1602.0,1604.0,1609.0,1610.0,1615.0,1614.0,1613.0,1621.0,1620.0,1620.0,1619.0,1618.0,1619.0,1620.0,1613.0,1614.0,1612.0,1608.0,1607.0,1607.0,1603.0,1601.0,1600.0,1599.0","22","even","134145","139153","5008","59997","134152","NA","57526","130768","NA","56884","NA","NA","2302","132645","NA","134153","2443","NA","NA","NA","139453","NA","131288","NA","139153","NA","132289","NA","130253","NA","57526","3045","NA","NA","139153","134145","56884","131288","NA","Extended template","0","0","0","yes","1024"
"undefined","undefined","undefined","NA","undefined","black","yes","xpyriment","legacy","legacy","0","uniform","undefined","undefined","0","8","NA","0","8","NA","0","0","0","0","8","NA","8","0","0","NA","NA","8","NA","8","NA","8","NA","8","NA","8","NA","0","0","0","0","8","8","0","8","NA","10/11/18 13:23:09","A template containing a practice and an experimental phase","easy","yes","Experiment.osexp","C:\Users\EEGExp\Desktop","no","mono","no","18","no","white","no","Ok","yes","768","legacy","8","8","0","C:/Users/EEGExp/Desktop/subject-22.csv","xpyriment","Kafkaesque Koffka","3.2.5","yes","[ 1687.  1689.  1691.  1694.  1693.  1692.  1693.  1692.  1693.  1693.
  1693.  1695.  1694.  1692.  1692.  1693.  1692.  1689.  1690.  1690.
  1690.  1694.  1693.  1689.  1693.  1696.  1698.  1702.  1703.  1706.
  1710.  1713.  1716.  1721.  1723.  1729.  1730.  1735.  1737.  1743.
  1739.  1741.  1745.  1747.  1746.  1746.  1749.  1749.  1750.  1750.
  1750.  1751.  1747.  1750.  1748.  1749.  1743.  1745.  1745.  1744.
  1744.  1744.  1743.  1747.  1744.  1745.  1744.  1745.  1743.  1744.
  1740.  1739.  1733.  1735.  1732.  1729.  1726.  1723.  1723.  1721.
  1715.  1710.  1708.  1706.  1704.  1700.  1699.  1700.  1697.  1693.
  1693.  1692.  1692.  1691.  1688.  1689.  1690.  1691.  1692.  1690.
  1693.  1695.  1691.  1696.  1695.  1698.  1703.  1708.  1706.  1705.
  1705.  1709.  1708.  1710.  1713.  1713.  1715.  1709.  1719.  1717.
  1716.  1715.  1717.  1712.  1712.  1713.  1705.  1706.  1702.  1697.
  1700.  1698.  1692.  1686.  1684.  1678.  1675.  1677.  1670.  1670.
  1667.  1665.  1663.  1661.  1658.  1657.  1656.  1657.  1655.  1652.
  1652.  1655.  1653.  1653.  1656.  1655.  1656.  1656.  1660.  1660.
  1666.  1665.  1668.  1666.  1673.  1675.  1674.  1681.  1686.  1689.
  1693.  1696.  1698.  1711.  1711.  1715.  1719.  1722.  1725.  1729.
  1735.  1736.  1741.  1744.  1745.  1747.  1750.  1750.  1751.  1752.
  1751.  1751.  1752.  1756.  1755.  1755.  1755.  1755.  1752.  1752.
  1751.  1750.  1752.  1750.  1751.  1746.  1748.  1747.  1744.  1747.
  1747.  1743.  1741.  1742.  1737.  1736.  1735.  1735.  1732.  1734.
  1732.  1731.  1730.  1728.  1726.  1721.  1721.  1720.  1716.  1717.
  1712.  1707.  1704.  1700.  1698.  1693.  1804.  1736.  1670.  1344.
   840.   601.     0.     0.     0.     0.     0.     0.     0.     0.
     0.     0.     0.   745.  1486.  1736.  1824.  1686.  1685.  1687.
  1686.  1689.  1688.  1689.  1691.  1688.  1688.  1681.  1687.  1683.
  1685.  1686.  1687.  1688.  1687.  1690.  1692.  1688.  1689.  1688.
  1688.  1681.  1678.  1674.  1666.  1655.  1644.  1639.  1632.  1623.
  1612.  1604.  1596.  1592.  1583.  1581.  1574.  1569.  1564.  1560.
  1557.  1553.  1551.  1545.  1546.  1540.  1540.  1534.  1526.  1530.
  1529.  1530.  1521.  1523.  1521.  1519.  1520.  1516.  1517.  1516.
  1517.  1518.  1515.  1518.  1513.  1513.  1516.  1516.  1517.  1515.
  1517.  1517.  1517.  1520.  1519.  1519.  1520.  1521.  1525.  1525.
  1525.  1524.  1525.  1527.  1528.  1527.  1527.  1529.  1530.  1525.
  1525.  1528.  1525.  1525.  1529.  1527.  1527.  1526.  1530.  1528.
  1528.  1530.  1530.  1532.  1535.  1538.  1542.  1538.  1546.  1551.
  1553.  1554.  1557.  1559.  1564.  1565.  1567.  1570.  1570.  1571.
  1574.  1573.  1576.  1579.  1580.  1581.  1584.  1590.  1591.  1593.
  1596.  1600.  1605.  1608.  1606.  1609.  1615.  1614.  1616.  1618.]","6 + 2","0","space","NA","NA","space","601","NA","NA","601","LinregressResult(slope=-0.37357264732904583, intercept=1731.7713157894736, rvalue=-0.90331589114603617, pvalue=2.259279939766975e-148, stderr=0.008892561343050066)","2","legacy","-0.373572647329","1024","2","48000","-16","experiment","1687.0,1689.0,1691.0,1694.0,1693.0,1692.0,1693.0,1692.0,1693.0,1693.0,1693.0,1695.0,1694.0,1692.0,1692.0,1693.0,1692.0,1689.0,1690.0,1690.0,1690.0,1694.0,1693.0,1689.0,1693.0,1696.0,1698.0,1702.0,1703.0,1706.0,1710.0,1713.0,1716.0,1721.0,1723.0,1729.0,1730.0,1735.0,1737.0,1743.0,1739.0,1741.0,1745.0,1747.0,1746.0,1746.0,1749.0,1749.0,1750.0,1750.0,1750.0,1751.0,1747.0,1750.0,1748.0,1749.0,1743.0,1745.0,1745.0,1744.0,1744.0,1744.0,1743.0,1747.0,1744.0,1745.0,1744.0,1745.0,1743.0,1744.0,1740.0,1739.0,1733.0,1735.0,1732.0,1729.0,1726.0,1723.0,1723.0,1721.0,1715.0,1710.0,1708.0,1706.0,1704.0,1700.0,1699.0,1700.0,1697.0,1693.0,1693.0,1692.0,1692.0,1691.0,1688.0,1689.0,1690.0,1691.0,1692.0,1690.0,1693.0,1695.0,1691.0,1696.0,1695.0,1698.0,1703.0,1708.0,1706.0,1705.0,1705.0,1709.0,1708.0,1710.0,1713.0,1713.0,1715.0,1709.0,1719.0,1717.0,1716.0,1715.0,1717.0,1712.0,1712.0,1713.0,1705.0,1706.0,1702.0,1697.0,1700.0,1698.0,1692.0,1686.0,1684.0,1678.0,1675.0,1677.0,1670.0,1670.0,1667.0,1665.0,1663.0,1661.0,1658.0,1657.0,1656.0,1657.0,1655.0,1652.0,1652.0,1655.0,1653.0,1653.0,1656.0,1655.0,1656.0,1656.0,1660.0,1660.0,1666.0,1665.0,1668.0,1666.0,1673.0,1675.0,1674.0,1681.0,1686.0,1689.0,1693.0,1696.0,1698.0,1711.0,1711.0,1715.0,1719.0,1722.0,1725.0,1729.0,1735.0,1736.0,1741.0,1744.0,1745.0,1747.0,1750.0,1750.0,1751.0,1752.0,1751.0,1751.0,1752.0,1756.0,1755.0,1755.0,1755.0,1755.0,1752.0,1752.0,1751.0,1750.0,1752.0,1750.0,1751.0,1746.0,1748.0,1747.0,1744.0,1747.0,1747.0,1743.0,1741.0,1742.0,1737.0,1736.0,1735.0,1735.0,1732.0,1734.0,1732.0,1731.0,1730.0,1728.0,1726.0,1721.0,1721.0,1720.0,1716.0,1717.0,1712.0,1707.0,1704.0,1700.0,1698.0,1693.0,1804.0,1736.0,1670.0,1344.0,840.0,601.0,0.0,0.0,0.0,0.0,0.0,0.0,0.0,0.0,0.0,0.0,0.0,745.0,1486.0,1736.0,1824.0,1686.0,1685.0,1687.0,1686.0,1689.0,1688.0,1689.0,1691.0,1688.0,1688.0,1681.0,1687.0,1683.0,1685.0,1686.0,1687.0,1688.0,1687.0,1690.0,1692.0,1688.0,1689.0,1688.0,1688.0,1681.0,1678.0,1674.0,1666.0,1655.0,1644.0,1639.0,1632.0,1623.0,1612.0,1604.0,1596.0,1592.0,1583.0,1581.0,1574.0,1569.0,1564.0,1560.0,1557.0,1553.0,1551.0,1545.0,1546.0,1540.0,1540.0,1534.0,1526.0,1530.0,1529.0,1530.0,1521.0,1523.0,1521.0,1519.0,1520.0,1516.0,1517.0,1516.0,1517.0,1518.0,1515.0,1518.0,1513.0,1513.0,1516.0,1516.0,1517.0,1515.0,1517.0,1517.0,1517.0,1520.0,1519.0,1519.0,1520.0,1521.0,1525.0,1525.0,1525.0,1524.0,1525.0,1527.0,1528.0,1527.0,1527.0,1529.0,1530.0,1525.0,1525.0,1528.0,1525.0,1525.0,1529.0,1527.0,1527.0,1526.0,1530.0,1528.0,1528.0,1530.0,1530.0,1532.0,1535.0,1538.0,1542.0,1538.0,1546.0,1551.0,1553.0,1554.0,1557.0,1559.0,1564.0,1565.0,1567.0,1570.0,1570.0,1571.0,1574.0,1573.0,1576.0,1579.0,1580.0,1581.0,1584.0,1590.0,1591.0,1593.0,1596.0,1600.0,1605.0,1608.0,1606.0,1609.0,1615.0,1614.0,1616.0,1618.0","22","even","143485","148493","5008","59997","143492","NA","57526","139982","NA","56884","NA","NA","2302","141985","NA","143493","2443","NA","NA","NA","148793","NA","140503","NA","148493","NA","141625","NA","139467","NA","57526","3045","NA","NA","148493","143485","56884","140503","NA","Extended template","0","0","0","yes","1024"
"undefined","undefined","undefined","NA","undefined","black","yes","xpyriment","legacy","legacy","0","uniform","undefined","undefined","0","9","NA","0","9","NA","0","0","0","0","9","NA","9","0","0","NA","NA","9","NA","9","NA","9","NA","9","NA","9","NA","0","0","0","0","9","9","0","9","NA","10/11/18 13:23:09","A template containing a practice and an experimental phase","hard","yes","Experiment.osexp","C:\Users\EEGExp\Desktop","no","mono","no","18","no","white","no","Ok","yes","768","legacy","9","9","0","C:/Users/EEGExp/Desktop/subject-22.csv","xpyriment","Kafkaesque Koffka","3.2.5","yes","[ 1633.  1636.  1637.  1641.  1637.  1643.  1638.  1639.  1643.  1643.
  1646.  1646.  1648.  1648.  1656.  1660.  1658.  1660.  1665.  1665.
  1666.  1666.  1668.  1669.  1668.  1669.  1669.  1669.  1669.  1672.
  1673.  1670.  1669.  1668.  1662.  1665.  1666.  1669.  1668.  1665.
  1663.  1664.  1663.  1663.  1661.  1660.  1658.  1659.  1656.  1657.
  1655.  1655.  1653.  1653.  1654.  1652.  1652.  1655.  1654.  1657.
  1654.  1656.  1657.  1660.  1658.  1663.  1663.  1667.  1664.  1668.
  1666.  1664.  1664.  1662.  1661.  1663.  1663.  1662.  1663.  1657.
  1653.  1654.  1654.  1649.  1647.  1645.  1643.  1642.  1644.  1639.
  1638.  1638.  1645.  1644.  1638.  1640.  1641.  1636.  1635.  1635.
  1636.  1636.  1637.  1636.  1639.  1637.  1635.  1634.  1637.  1634.
  1631.  1633.  1631.  1631.  1627.  1623.  1623.  1619.  1617.  1614.
  1612.  1611.  1608.  1609.  1609.  1608.  1605.  1604.  1608.  1609.
  1607.  1608.  1608.  1607.  1607.  1606.  1607.  1606.  1605.  1604.
  1605.  1605.  1602.  1601.  1606.  1603.  1603.  1604.  1605.  1607.
  1609.  1605.  1608.  1608.  1609.  1608.  1611.  1611.  1618.  1620.
  1619.  1620.  1619.  1621.  1628.  1628.  1632.  1636.  1638.  1641.
  1648.  1649.  1654.  1655.  1659.  1662.  1669.  1669.  1671.  1670.
  1667.  1670.  1669.  1670.  1669.  1670.  1672.  1668.  1670.  1669.
  1665.  1663.  1662.  1662.  1661.  1659.  1653.  1653.  1652.  1650.
  1645.  1645.  1638.  1638.  1635.  1629.  1629.  1626.  1625.  1619.
  1617.  1617.  1613.  1610.  1607.  1607.  1604.  1611.  1620.  1607.
  1608.  1603.  1608.  1607.  1603.  1606.  1605.  1605.  1607.  1609.
  1612.  1612.  1613.  1612.  1613.  1617.  1617.  1615.  1619.  1619.
  1617.  1620.  1622.  1623.  1627.  1630.  1633.  1633.  1637.  1641.
  1645.  1653.  1657.  1662.  1666.  1677.  1675.  1683.  1687.  1694.
  1698.  1701.  1708.  1714.  1712.  1718.  1716.  1717.  1721.  1720.
  1724.  1723.  1720.  1720.  1717.  1716.  1714.  1714.  1711.  1703.
  1702.  1703.  1700.  1698.  1694.  1694.  1693.  1693.  1693.  1690.
  1693.  1693.  1695.  1695.  1702.  1703.  1705.  1708.  1710.  1714.
  1714.  1718.  1717.  1723.  1724.  1725.  1726.  1727.  1726.  1726.
  1729.  1727.  1727.  1728.  1732.  1731.  1727.  1726.  1729.  1728.
  1724.  1725.  1724.  1724.  1723.  1728.  1723.  1722.  1725.  1723.
  1721.  1725.  1727.  1724.  1725.  1723.  1722.  1720.  1719.  1718.
  1718.  1716.  1716.  1714.  1714.  1716.  1712.  1712.  1714.  1715.
  1717.  1713.  1712.  1712.  1713.  1710.  1710.  1708.  1705.  1706.
  1700.  1699.  1695.  1693.  1691.  1684.  1686.  1681.  1677.  1671.
  1669.  1659.  1659.  1658.  1650.  1649.  1645.  1644.  1642.  1641.
  1640.  1637.  1636.  1632.  1631.  1630.  1632.  1630.  1629.  1625.
  1626.  1626.  1627.  1620.  1626.  1623.  1622.  1621.  1624.  1621.]","4x - 2 = 10","0","space","NA","NA","space","601","NA","NA","601","LinregressResult(slope=-0.68552931580822374, intercept=1746.1311278195487, rvalue=-0.26983561579328513, pvalue=4.2093589945132628e-08, stderr=0.12262225490070787)","2","legacy","-0.685529315808","1024","2","48000","-16","experiment","1633.0,1636.0,1637.0,1641.0,1637.0,1643.0,1638.0,1639.0,1643.0,1643.0,1646.0,1646.0,1648.0,1648.0,1656.0,1660.0,1658.0,1660.0,1665.0,1665.0,1666.0,1666.0,1668.0,1669.0,1668.0,1669.0,1669.0,1669.0,1669.0,1672.0,1673.0,1670.0,1669.0,1668.0,1662.0,1665.0,1666.0,1669.0,1668.0,1665.0,1663.0,1664.0,1663.0,1663.0,1661.0,1660.0,1658.0,1659.0,1656.0,1657.0,1655.0,1655.0,1653.0,1653.0,1654.0,1652.0,1652.0,1655.0,1654.0,1657.0,1654.0,1656.0,1657.0,1660.0,1658.0,1663.0,1663.0,1667.0,1664.0,1668.0,1666.0,1664.0,1664.0,1662.0,1661.0,1663.0,1663.0,1662.0,1663.0,1657.0,1653.0,1654.0,1654.0,1649.0,1647.0,1645.0,1643.0,1642.0,1644.0,1639.0,1638.0,1638.0,1645.0,1644.0,1638.0,1640.0,1641.0,1636.0,1635.0,1635.0,1636.0,1636.0,1637.0,1636.0,1639.0,1637.0,1635.0,1634.0,1637.0,1634.0,1631.0,1633.0,1631.0,1631.0,1627.0,1623.0,1623.0,1619.0,1617.0,1614.0,1612.0,1611.0,1608.0,1609.0,1609.0,1608.0,1605.0,1604.0,1608.0,1609.0,1607.0,1608.0,1608.0,1607.0,1607.0,1606.0,1607.0,1606.0,1605.0,1604.0,1605.0,1605.0,1602.0,1601.0,1606.0,1603.0,1603.0,1604.0,1605.0,1607.0,1609.0,1605.0,1608.0,1608.0,1609.0,1608.0,1611.0,1611.0,1618.0,1620.0,1619.0,1620.0,1619.0,1621.0,1628.0,1628.0,1632.0,1636.0,1638.0,1641.0,1648.0,1649.0,1654.0,1655.0,1659.0,1662.0,1669.0,1669.0,1671.0,1670.0,1667.0,1670.0,1669.0,1670.0,1669.0,1670.0,1672.0,1668.0,1670.0,1669.0,1665.0,1663.0,1662.0,1662.0,1661.0,1659.0,1653.0,1653.0,1652.0,1650.0,1645.0,1645.0,1638.0,1638.0,1635.0,1629.0,1629.0,1626.0,1625.0,1619.0,1617.0,1617.0,1613.0,1610.0,1607.0,1607.0,1604.0,1611.0,1620.0,1607.0,1608.0,1603.0,1608.0,1607.0,1603.0,1606.0,1605.0,1605.0,1607.0,1609.0,1612.0,1612.0,1613.0,1612.0,1613.0,1617.0,1617.0,1615.0,1619.0,1619.0,1617.0,1620.0,1622.0,1623.0,1627.0,1630.0,1633.0,1633.0,1637.0,1641.0,1645.0,1653.0,1657.0,1662.0,1666.0,1677.0,1675.0,1683.0,1687.0,1694.0,1698.0,1701.0,1708.0,1714.0,1712.0,1718.0,1716.0,1717.0,1721.0,1720.0,1724.0,1723.0,1720.0,1720.0,1717.0,1716.0,1714.0,1714.0,1711.0,1703.0,1702.0,1703.0,1700.0,1698.0,1694.0,1694.0,1693.0,1693.0,1693.0,1690.0,1693.0,1693.0,1695.0,1695.0,1702.0,1703.0,1705.0,1708.0,1710.0,1714.0,1714.0,1718.0,1717.0,1723.0,1724.0,1725.0,1726.0,1727.0,1726.0,1726.0,1729.0,1727.0,1727.0,1728.0,1732.0,1731.0,1727.0,1726.0,1729.0,1728.0,1724.0,1725.0,1724.0,1724.0,1723.0,1728.0,1723.0,1722.0,1725.0,1723.0,1721.0,1725.0,1727.0,1724.0,1725.0,1723.0,1722.0,1720.0,1719.0,1718.0,1718.0,1716.0,1716.0,1714.0,1714.0,1716.0,1712.0,1712.0,1714.0,1715.0,1717.0,1713.0,1712.0,1712.0,1713.0,1710.0,1710.0,1708.0,1705.0,1706.0,1700.0,1699.0,1695.0,1693.0,1691.0,1684.0,1686.0,1681.0,1677.0,1671.0,1669.0,1659.0,1659.0,1658.0,1650.0,1649.0,1645.0,1644.0,1642.0,1641.0,1640.0,1637.0,1636.0,1632.0,1631.0,1630.0,1632.0,1630.0,1629.0,1625.0,1626.0,1626.0,1627.0,1620.0,1626.0,1623.0,1622.0,1621.0,1624.0,1621.0","22","even","155340","160348","5008","59997","155347","NA","57526","149323","NA","56884","NA","NA","2302","153840","NA","155348","2443","NA","NA","NA","160648","NA","149842","NA","160348","NA","153483","NA","148809","NA","57526","3045","NA","NA","160348","155340","56884","149842","NA","Extended template","0","0","0","yes","1024"
"undefined","undefined","undefined","NA","undefined","black","yes","xpyriment","legacy","legacy","0","uniform","undefined","undefined","0","10","NA","0","10","NA","0","0","0","0","10","NA","10","0","0","NA","NA","10","NA","10","NA","10","NA","10","NA","10","NA","0","0","0","0","10","10","0","10","NA","10/11/18 13:23:09","A template containing a practice and an experimental phase","medium","yes","Experiment.osexp","C:\Users\EEGExp\Desktop","no","mono","no","18","no","white","no","Ok","yes","768","legacy","10","10","0","C:/Users/EEGExp/Desktop/subject-22.csv","xpyriment","Kafkaesque Koffka","3.2.5","yes","[ 1599.  1593.  1590.  1588.  1586.  1583.  1583.  1577.  1575.  1571.
  1568.  1567.  1563.  1560.  1559.  1557.  1552.  1549.  1545.  1543.
  1544.  1540.  1539.  1538.  1537.  1535.  1533.  1534.  1529.  1532.
  1532.  1529.  1530.  1530.  1534.  1536.  1538.  1536.  1538.  1538.
  1538.  1540.  1541.  1544.  1546.  1546.  1548.  1548.  1547.  1548.
  1547.  1549.  1545.  1548.  1548.  1546.  1546.  1546.  1542.  1546.
  1543.  1543.  1545.  1543.  1543.  1543.  1545.  1546.  1543.  1548.
  1550.  1550.  1552.  1551.  1550.  1552.  1555.  1555.  1554.  1553.
  1552.  1555.  1558.  1553.  1557.  1555.  1556.  1557.  1558.  1560.
  1562.  1563.  1566.  1565.  1565.  1566.  1568.  1571.  1575.  1579.
  1581.  1585.  1585.  1590.  1590.  1597.  1596.  1605.  1603.  1607.
  1607.  1612.  1612.  1611.  1614.  1616.  1617.  1612.  1613.  1611.
  1610.  1612.  1612.  1608.  1609.  1609.  1606.  1605.  1603.  1602.
  1601.  1601.  1601.  1600.  1601.  1601.  1601.  1602.  1599.  1600.
  1601.  1596.  1597.  1595.  1597.  1593.  1593.  1593.  1592.  1593.
  1591.  1587.  1587.  1587.  1587.  1585.  1586.  1587.  1582.  1579.
  1580.  1581.  1582.  1584.  1583.  1585.  1589.  1589.  1587.  1591.
  1589.  1590.  1594.  1595.  1600.  1601.  1602.  1603.  1603.  1603.
  1604.  1606.  1604.  1607.  1604.  1601.  1604.  1601.  1597.  1594.
  1592.  1591.  1590.  1586.  1580.  1581.  1579.  1577.  1576.  1577.
  1578.  1577.  1575.  1573.  1574.  1574.  1572.  1570.  1569.  1571.
  1569.  1569.  1569.  1569.  1570.  1567.  1572.  1572.  1570.  1568.
  1569.  1568.  1566.  1565.  1565.  1560.  1561.  1560.  1557.  1557.
  1555.  1552.  1549.  1549.  1547.  1547.  1544.  1541.  1538.  1539.
  1540.  1538.  1539.  1540.  1537.  1539.  1540.  1540.  1539.  1539.
  1545.  1543.  1543.  1544.  1545.  1548.  1547.  1548.  1549.  1549.
  1554.  1550.  1553.  1554.  1555.  1553.  1557.  1554.  1556.  1551.
  1553.  1551.  1548.  1547.  1545.  1545.  1546.  1541.  1542.  1541.
  1542.  1541.  1537.  1537.  1536.  1536.  1536.  1531.  1535.  1537.
  1538.  1538.  1542.  1544.  1545.  1549.  1545.  1547.  1547.  1547.
  1553.  1555.  1555.  1559.  1562.  1564.  1562.  1562.  1566.  1570.
  1569.  1572.  1575.  1575.  1575.  1585.  1585.  1586.  1590.  1592.
  1597.  1597.  1599.  1602.  1604.  1606.  1611.  1615.  1616.  1613.
  1620.  1617.  1618.  1618.  1621.  1619.  1615.  1618.  1614.  1612.
  1610.  1607.  1599.  1600.  1599.  1596.  1592.  1588.  1586.  1586.
  1587.  1579.  1584.  1580.  1577.  1577.  1578.  1574.  1577.  1575.
  1575.  1581.  1580.  1578.  1577.  1580.  1579.  1579.  1579.  1581.
  1578.  1580.  1580.  1579.  1576.  1579.  1578.  1581.  1581.  1578.
  1577.  1577.  1577.  1580.  1581.  1578.  1578.  1580.  1579.  1579.
  1582.  1582.  1578.  1582.  1581.  1581.  1580.  1581.  1583.  1586.]","3x = 15","0","space","NA","NA","space","601","NA","NA","601","LinregressResult(slope=0.13629863311645699, intercept=1631.8896240601503, rvalue=0.4078321993961414, pvalue=1.8369740512735896e-17, stderr=0.015295592133923043)","2","legacy","0.136298633116","1024","2","48000","-16","experiment","1599.0,1593.0,1590.0,1588.0,1586.0,1583.0,1583.0,1577.0,1575.0,1571.0,1568.0,1567.0,1563.0,1560.0,1559.0,1557.0,1552.0,1549.0,1545.0,1543.0,1544.0,1540.0,1539.0,1538.0,1537.0,1535.0,1533.0,1534.0,1529.0,1532.0,1532.0,1529.0,1530.0,1530.0,1534.0,1536.0,1538.0,1536.0,1538.0,1538.0,1538.0,1540.0,1541.0,1544.0,1546.0,1546.0,1548.0,1548.0,1547.0,1548.0,1547.0,1549.0,1545.0,1548.0,1548.0,1546.0,1546.0,1546.0,1542.0,1546.0,1543.0,1543.0,1545.0,1543.0,1543.0,1543.0,1545.0,1546.0,1543.0,1548.0,1550.0,1550.0,1552.0,1551.0,1550.0,1552.0,1555.0,1555.0,1554.0,1553.0,1552.0,1555.0,1558.0,1553.0,1557.0,1555.0,1556.0,1557.0,1558.0,1560.0,1562.0,1563.0,1566.0,1565.0,1565.0,1566.0,1568.0,1571.0,1575.0,1579.0,1581.0,1585.0,1585.0,1590.0,1590.0,1597.0,1596.0,1605.0,1603.0,1607.0,1607.0,1612.0,1612.0,1611.0,1614.0,1616.0,1617.0,1612.0,1613.0,1611.0,1610.0,1612.0,1612.0,1608.0,1609.0,1609.0,1606.0,1605.0,1603.0,1602.0,1601.0,1601.0,1601.0,1600.0,1601.0,1601.0,1601.0,1602.0,1599.0,1600.0,1601.0,1596.0,1597.0,1595.0,1597.0,1593.0,1593.0,1593.0,1592.0,1593.0,1591.0,1587.0,1587.0,1587.0,1587.0,1585.0,1586.0,1587.0,1582.0,1579.0,1580.0,1581.0,1582.0,1584.0,1583.0,1585.0,1589.0,1589.0,1587.0,1591.0,1589.0,1590.0,1594.0,1595.0,1600.0,1601.0,1602.0,1603.0,1603.0,1603.0,1604.0,1606.0,1604.0,1607.0,1604.0,1601.0,1604.0,1601.0,1597.0,1594.0,1592.0,1591.0,1590.0,1586.0,1580.0,1581.0,1579.0,1577.0,1576.0,1577.0,1578.0,1577.0,1575.0,1573.0,1574.0,1574.0,1572.0,1570.0,1569.0,1571.0,1569.0,1569.0,1569.0,1569.0,1570.0,1567.0,1572.0,1572.0,1570.0,1568.0,1569.0,1568.0,1566.0,1565.0,1565.0,1560.0,1561.0,1560.0,1557.0,1557.0,1555.0,1552.0,1549.0,1549.0,1547.0,1547.0,1544.0,1541.0,1538.0,1539.0,1540.0,1538.0,1539.0,1540.0,1537.0,1539.0,1540.0,1540.0,1539.0,1539.0,1545.0,1543.0,1543.0,1544.0,1545.0,1548.0,1547.0,1548.0,1549.0,1549.0,1554.0,1550.0,1553.0,1554.0,1555.0,1553.0,1557.0,1554.0,1556.0,1551.0,1553.0,1551.0,1548.0,1547.0,1545.0,1545.0,1546.0,1541.0,1542.0,1541.0,1542.0,1541.0,1537.0,1537.0,1536.0,1536.0,1536.0,1531.0,1535.0,1537.0,1538.0,1538.0,1542.0,1544.0,1545.0,1549.0,1545.0,1547.0,1547.0,1547.0,1553.0,1555.0,1555.0,1559.0,1562.0,1564.0,1562.0,1562.0,1566.0,1570.0,1569.0,1572.0,1575.0,1575.0,1575.0,1585.0,1585.0,1586.0,1590.0,1592.0,1597.0,1597.0,1599.0,1602.0,1604.0,1606.0,1611.0,1615.0,1616.0,1613.0,1620.0,1617.0,1618.0,1618.0,1621.0,1619.0,1615.0,1618.0,1614.0,1612.0,1610.0,1607.0,1599.0,1600.0,1599.0,1596.0,1592.0,1588.0,1586.0,1586.0,1587.0,1579.0,1584.0,1580.0,1577.0,1577.0,1578.0,1574.0,1577.0,1575.0,1575.0,1581.0,1580.0,1578.0,1577.0,1580.0,1579.0,1579.0,1579.0,1581.0,1578.0,1580.0,1580.0,1579.0,1576.0,1579.0,1578.0,1581.0,1581.0,1578.0,1577.0,1577.0,1577.0,1580.0,1581.0,1578.0,1578.0,1580.0,1579.0,1579.0,1582.0,1582.0,1578.0,1582.0,1581.0,1581.0,1580.0,1581.0,1583.0,1586.0","22","even","165799","170805","5006","59997","165804","NA","57526","161184","NA","56884","NA","NA","2302","164299","NA","165805","2443","NA","NA","NA","171105","NA","161706","NA","170805","NA","163937","NA","160669","NA","57526","3045","NA","NA","170805","165799","56884","161706","NA","Extended template","0","0","0","yes","1024"
"undefined","undefined","undefined","NA","undefined","black","yes","xpyriment","legacy","legacy","0","uniform","undefined","undefined","0","11","NA","0","11","NA","0","0","0","0","11","NA","11","0","0","NA","NA","11","NA","11","NA","11","NA","11","NA","11","NA","0","0","0","0","11","11","0","11","NA","10/11/18 13:23:09","A template containing a practice and an experimental phase","hard","yes","Experiment.osexp","C:\Users\EEGExp\Desktop","no","mono","no","18","no","white","no","Ok","yes","768","legacy","11","11","0","C:/Users/EEGExp/Desktop/subject-22.csv","xpyriment","Kafkaesque Koffka","3.2.5","yes","[ 1571.  1575.  1572.  1575.  1575.  1579.  1574.  1573.  1574.  1578.
  1574.  1580.  1581.  1581.  1582.  1586.  1588.  1591.  1592.  1594.
  1596.  1599.  1601.  1606.  1607.  1611.  1615.  1610.  1612.  1613.
  1613.  1616.  1622.  1621.  1621.  1622.  1623.  1620.  1621.  1623.
  1618.  1621.  1619.  1620.  1619.  1618.  1625.  1635.  1625.  1625.
  1625.  1624.  1628.  1626.  1624.  1625.  1629.  1628.  1623.  1627.
  1628.  1627.  1632.  1632.  1635.  1633.  1634.  1637.  1635.  1637.
  1637.  1637.  1639.  1643.  1641.  1641.  1643.  1642.  1644.  1650.
  1652.  1651.  1655.  1656.  1659.  1661.  1661.  1665.  1666.  1664.
  1665.  1661.  1664.  1660.  1656.  1654.  1653.  1644.  1640.  1633.
  1627.  1623.  1619.  1621.  1610.  1606.  1602.  1595.  1593.  1586.
  1582.  1580.  1579.  1580.  1575.  1576.  1573.  1573.  1574.  1570.
  1569.  1569.  1569.  1572.  1571.  1572.  1571.  1569.  1571.  1570.
  1570.  1574.  1572.  1574.  1576.  1576.  1576.  1579.  1579.  1585.
  1583.  1585.  1586.  1588.  1595.  1600.  1604.  1607.  1609.  1614.
  1619.  1618.  1619.  1624.  1626.  1628.  1632.  1635.  1639.  1642.
  1638.  1639.  1643.  1648.  1646.  1650.  1645.  1644.  1644.  1646.
  1644.  1643.  1641.  1641.  1642.  1644.  1639.  1634.  1629.  1627.
  1624.  1621.  1615.  1616.  1612.  1610.  1611.  1608.  1606.  1610.
  1609.  1609.  1609.  1608.  1610.  1610.  1609.  1613.  1612.  1611.
  1613.  1610.  1616.  1616.  1616.  1618.  1618.  1619.  1621.  1626.
  1631.  1631.  1632.  1636.  1638.  1640.  1644.  1644.  1648.  1647.
  1647.  1649.  1647.  1647.  1649.  1647.  1648.  1646.  1645.  1646.
  1649.  1645.  1643.  1644.  1641.  1637.  1635.  1633.  1631.  1629.
  1628.  1625.  1626.  1622.  1621.  1618.  1617.  1616.  1614.  1614.
  1613.  1613.  1612.  1608.  1606.  1610.  1609.  1605.  1605.  1609.
  1608.  1610.  1608.  1608.  1608.  1612.  1619.  1623.  1623.  1626.
  1629.  1631.  1635.  1636.  1638.  1639.  1642.  1643.  1644.  1645.
  1643.  1644.  1639.  1639.  1639.  1639.  1630.  1631.  1631.  1624.
  1622.  1616.  1615.  1673.  1452.   703.     0.     0.     0.     0.
     0.     0.     0.     0.     0.     0.     0.   609.  1275.  1565.
  1683.  1756.  1631.  1615.  1613.  1612.  1683.  1434.   639.     0.
     0.     0.     0.     0.     0.     0.   691.  1423.  1655.  1728.
  1593.  1596.  1595.  1598.  1602.  1606.  1608.  1609.  1606.  1605.
  1604.  1603.  1597.  1595.  1596.  1598.  1594.  1595.  1593.  1595.
  1592.  1592.  1592.  1587.  1584.  1576.  1570.  1565.  1553.  1545.
  1538.  1527.  1521.  1517.  1507.  1501.  1493.  1488.  1477.  1475.
  1465.  1461.  1459.  1448.  1447.  1443.  1440.  1435.  1431.  1428.
  1422.  1423.  1421.  1419.  1415.  1417.  1416.  1415.  1415.  1416.
  1416.  1416.  1420.  1421.  1423.  1430.  1429.  1431.  1436.  1442.]","3x - 5 = 10","0","space","NA","NA","space","601","NA","NA","601","LinregressResult(slope=0.043486771792323707, intercept=1562.8109022556391, rvalue=0.20792357152331203, pvalue=2.7729672810014816e-05, stderr=0.010254516295354798)","2","legacy","0.0434867717923","1024","2","48000","-16","experiment","1571.0,1575.0,1572.0,1575.0,1575.0,1579.0,1574.0,1573.0,1574.0,1578.0,1574.0,1580.0,1581.0,1581.0,1582.0,1586.0,1588.0,1591.0,1592.0,1594.0,1596.0,1599.0,1601.0,1606.0,1607.0,1611.0,1615.0,1610.0,1612.0,1613.0,1613.0,1616.0,1622.0,1621.0,1621.0,1622.0,1623.0,1620.0,1621.0,1623.0,1618.0,1621.0,1619.0,1620.0,1619.0,1618.0,1625.0,1635.0,1625.0,1625.0,1625.0,1624.0,1628.0,1626.0,1624.0,1625.0,1629.0,1628.0,1623.0,1627.0,1628.0,1627.0,1632.0,1632.0,1635.0,1633.0,1634.0,1637.0,1635.0,1637.0,1637.0,1637.0,1639.0,1643.0,1641.0,1641.0,1643.0,1642.0,1644.0,1650.0,1652.0,1651.0,1655.0,1656.0,1659.0,1661.0,1661.0,1665.0,1666.0,1664.0,1665.0,1661.0,1664.0,1660.0,1656.0,1654.0,1653.0,1644.0,1640.0,1633.0,1627.0,1623.0,1619.0,1621.0,1610.0,1606.0,1602.0,1595.0,1593.0,1586.0,1582.0,1580.0,1579.0,1580.0,1575.0,1576.0,1573.0,1573.0,1574.0,1570.0,1569.0,1569.0,1569.0,1572.0,1571.0,1572.0,1571.0,1569.0,1571.0,1570.0,1570.0,1574.0,1572.0,1574.0,1576.0,1576.0,1576.0,1579.0,1579.0,1585.0,1583.0,1585.0,1586.0,1588.0,1595.0,1600.0,1604.0,1607.0,1609.0,1614.0,1619.0,1618.0,1619.0,1624.0,1626.0,1628.0,1632.0,1635.0,1639.0,1642.0,1638.0,1639.0,1643.0,1648.0,1646.0,1650.0,1645.0,1644.0,1644.0,1646.0,1644.0,1643.0,1641.0,1641.0,1642.0,1644.0,1639.0,1634.0,1629.0,1627.0,1624.0,1621.0,1615.0,1616.0,1612.0,1610.0,1611.0,1608.0,1606.0,1610.0,1609.0,1609.0,1609.0,1608.0,1610.0,1610.0,1609.0,1613.0,1612.0,1611.0,1613.0,1610.0,1616.0,1616.0,1616.0,1618.0,1618.0,1619.0,1621.0,1626.0,1631.0,1631.0,1632.0,1636.0,1638.0,1640.0,1644.0,1644.0,1648.0,1647.0,1647.0,1649.0,1647.0,1647.0,1649.0,1647.0,1648.0,1646.0,1645.0,1646.0,1649.0,1645.0,1643.0,1644.0,1641.0,1637.0,1635.0,1633.0,1631.0,1629.0,1628.0,1625.0,1626.0,1622.0,1621.0,1618.0,1617.0,1616.0,1614.0,1614.0,1613.0,1613.0,1612.0,1608.0,1606.0,1610.0,1609.0,1605.0,1605.0,1609.0,1608.0,1610.0,1608.0,1608.0,1608.0,1612.0,1619.0,1623.0,1623.0,1626.0,1629.0,1631.0,1635.0,1636.0,1638.0,1639.0,1642.0,1643.0,1644.0,1645.0,1643.0,1644.0,1639.0,1639.0,1639.0,1639.0,1630.0,1631.0,1631.0,1624.0,1622.0,1616.0,1615.0,1673.0,1452.0,703.0,0.0,0.0,0.0,0.0,0.0,0.0,0.0,0.0,0.0,0.0,0.0,609.0,1275.0,1565.0,1683.0,1756.0,1631.0,1615.0,1613.0,1612.0,1683.0,1434.0,639.0,0.0,0.0,0.0,0.0,0.0,0.0,0.0,691.0,1423.0,1655.0,1728.0,1593.0,1596.0,1595.0,1598.0,1602.0,1606.0,1608.0,1609.0,1606.0,1605.0,1604.0,1603.0,1597.0,1595.0,1596.0,1598.0,1594.0,1595.0,1593.0,1595.0,1592.0,1592.0,1592.0,1587.0,1584.0,1576.0,1570.0,1565.0,1553.0,1545.0,1538.0,1527.0,1521.0,1517.0,1507.0,1501.0,1493.0,1488.0,1477.0,1475.0,1465.0,1461.0,1459.0,1448.0,1447.0,1443.0,1440.0,1435.0,1431.0,1428.0,1422.0,1423.0,1421.0,1419.0,1415.0,1417.0,1416.0,1415.0,1415.0,1416.0,1416.0,1416.0,1420.0,1421.0,1423.0,1430.0,1429.0,1431.0,1436.0,1442.0","22","even","177592","182600","5008","59997","177599","NA","57526","171633","NA","56884","NA","NA","2302","176092","NA","177600","2443","NA","NA","NA","182900","NA","172156","NA","182600","NA","175738","NA","171119","NA","57526","3045","NA","NA","182600","177592","56884","172156","NA","Extended template","0","0","0","yes","1024"
"undefined","undefined","undefined","NA","undefined","black","yes","xpyriment","legacy","legacy","0","uniform","undefined","undefined","0","12","NA","0","12","NA","0","0","0","0","12","NA","12","0","0","NA","NA","12","NA","12","NA","12","NA","12","NA","12","NA","0","0","0","0","12","12","0","12","NA","10/11/18 13:23:09","A template containing a practice and an experimental phase","hard","yes","Experiment.osexp","C:\Users\EEGExp\Desktop","no","mono","no","18","no","white","no","Ok","yes","768","legacy","12","12","0","C:/Users/EEGExp/Desktop/subject-22.csv","xpyriment","Kafkaesque Koffka","3.2.5","yes","[ 1631.  1633.  1632.  1628.  1628.  1627.  1629.  1630.  1631.  1627.
  1627.  1628.  1627.  1628.  1630.  1626.  1631.  1630.  1629.  1628.
  1627.  1628.  1627.  1627.  1629.  1628.  1627.  1628.  1627.  1626.
  1624.  1630.  1634.  1633.  1631.  1634.  1638.  1638.  1640.  1642.
  1644.  1648.  1646.  1649.  1650.  1651.  1651.  1653.  1655.  1654.
  1656.  1649.  1651.  1650.  1651.  1644.  1640.  1645.  1638.  1638.
  1638.  1634.  1632.  1626.  1629.  1625.  1624.  1618.  1615.  1611.
  1606.  1604.  1596.  1593.  1591.  1586.  1579.  1575.  1568.  1561.
  1553.  1548.  1543.  1538.  1532.  1526.  1522.  1518.  1511.  1511.
  1507.  1504.  1503.  1500.  1499.  1496.  1495.  1495.  1492.  1496.
  1497.  1506.  1502.  1500.  1500.  1504.  1503.  1503.  1503.  1508.
  1509.  1508.  1507.  1507.  1511.  1511.  1511.  1512.  1516.  1517.
  1521.  1525.  1526.  1527.  1527.  1533.  1533.  1535.  1536.  1537.
  1542.  1540.  1541.  1544.  1545.  1551.  1549.  1555.  1557.  1563.
  1560.  1564.  1573.  1575.  1577.  1582.  1584.  1583.  1589.  1592.
  1599.  1599.  1598.  1599.  1602.  1601.  1601.  1600.  1602.  1603.
  1603.  1601.  1599.  1599.  1599.  1599.  1598.  1603.  1598.  1601.
  1602.  1600.  1594.  1594.  1598.  1595.  1596.  1593.  1590.  1588.
  1584.  1582.  1580.  1578.  1578.  1579.  1576.  1577.  1574.  1576.
  1576.  1577.  1575.  1576.  1575.  1574.  1575.  1574.  1573.  1572.
  1568.  1566.  1567.  1565.  1563.  1564.  1564.  1566.  1568.  1570.
  1568.  1574.  1576.  1579.  1582.  1585.  1587.  1593.  1597.  1600.
  1606.  1607.  1616.  1617.  1620.  1626.  1628.  1628.  1633.  1634.
  1636.  1643.  1646.  1647.  1650.  1648.  1651.  1653.  1653.  1654.
  1655.  1658.  1662.  1663.  1661.  1665.  1665.  1667.  1667.  1668.
  1672.  1670.  1673.  1673.  1675.  1674.  1678.  1677.  1683.  1680.
  1682.  1685.  1688.  1691.  1688.  1691.  1692.  1692.  1697.  1697.
  1697.  1696.  1701.  1697.  1701.  1697.  1697.  1702.  1700.  1699.
  1697.  1696.  1693.  1690.  1689.  1689.  1688.  1687.  1685.  1681.
  1679.  1677.  1674.  1674.  1671.  1669.  1668.  1669.  1664.  1661.
  1662.  1663.  1663.  1666.  1662.  1665.  1663.  1662.  1663.  1664.
  1663.  1665.  1665.  1666.  1670.  1670.  1671.  1669.  1672.  1673.
  1669.  1673.  1675.  1672.  1671.  1671.  1666.  1659.  1658.  1658.
  1654.  1651.  1647.  1644.  1638.  1639.  1634.  1633.  1628.  1625.
  1629.  1625.  1622.  1622.  1624.  1617.  1621.  1617.  1615.  1611.
  1612.  1609.  1607.  1607.  1603.  1602.  1598.  1597.  1598.  1599.
  1593.  1589.  1589.  1590.  1591.  1589.  1587.  1586.  1588.  1585.
  1586.  1585.  1584.  1581.  1584.  1585.  1579.  1581.  1578.  1580.
  1579.  1581.  1581.  1585.  1584.  1580.  1584.  1585.  1582.  1583.
  1586.  1586.  1585.  1583.  1580.  1577.  1574.  1570.  1570.  1566.]","3x - 3 = 6","0","space","NA","NA","space","601","NA","NA","601","LinregressResult(slope=-0.91369724185776169, intercept=1699.2437969924811, rvalue=-0.30358565339732235, pvalue=5.6596014545486797e-10, stderr=0.14374183159910525)","2","legacy","-0.913697241858","1024","2","48000","-16","experiment","1631.0,1633.0,1632.0,1628.0,1628.0,1627.0,1629.0,1630.0,1631.0,1627.0,1627.0,1628.0,1627.0,1628.0,1630.0,1626.0,1631.0,1630.0,1629.0,1628.0,1627.0,1628.0,1627.0,1627.0,1629.0,1628.0,1627.0,1628.0,1627.0,1626.0,1624.0,1630.0,1634.0,1633.0,1631.0,1634.0,1638.0,1638.0,1640.0,1642.0,1644.0,1648.0,1646.0,1649.0,1650.0,1651.0,1651.0,1653.0,1655.0,1654.0,1656.0,1649.0,1651.0,1650.0,1651.0,1644.0,1640.0,1645.0,1638.0,1638.0,1638.0,1634.0,1632.0,1626.0,1629.0,1625.0,1624.0,1618.0,1615.0,1611.0,1606.0,1604.0,1596.0,1593.0,1591.0,1586.0,1579.0,1575.0,1568.0,1561.0,1553.0,1548.0,1543.0,1538.0,1532.0,1526.0,1522.0,1518.0,1511.0,1511.0,1507.0,1504.0,1503.0,1500.0,1499.0,1496.0,1495.0,1495.0,1492.0,1496.0,1497.0,1506.0,1502.0,1500.0,1500.0,1504.0,1503.0,1503.0,1503.0,1508.0,1509.0,1508.0,1507.0,1507.0,1511.0,1511.0,1511.0,1512.0,1516.0,1517.0,1521.0,1525.0,1526.0,1527.0,1527.0,1533.0,1533.0,1535.0,1536.0,1537.0,1542.0,1540.0,1541.0,1544.0,1545.0,1551.0,1549.0,1555.0,1557.0,1563.0,1560.0,1564.0,1573.0,1575.0,1577.0,1582.0,1584.0,1583.0,1589.0,1592.0,1599.0,1599.0,1598.0,1599.0,1602.0,1601.0,1601.0,1600.0,1602.0,1603.0,1603.0,1601.0,1599.0,1599.0,1599.0,1599.0,1598.0,1603.0,1598.0,1601.0,1602.0,1600.0,1594.0,1594.0,1598.0,1595.0,1596.0,1593.0,1590.0,1588.0,1584.0,1582.0,1580.0,1578.0,1578.0,1579.0,1576.0,1577.0,1574.0,1576.0,1576.0,1577.0,1575.0,1576.0,1575.0,1574.0,1575.0,1574.0,1573.0,1572.0,1568.0,1566.0,1567.0,1565.0,1563.0,1564.0,1564.0,1566.0,1568.0,1570.0,1568.0,1574.0,1576.0,1579.0,1582.0,1585.0,1587.0,1593.0,1597.0,1600.0,1606.0,1607.0,1616.0,1617.0,1620.0,1626.0,1628.0,1628.0,1633.0,1634.0,1636.0,1643.0,1646.0,1647.0,1650.0,1648.0,1651.0,1653.0,1653.0,1654.0,1655.0,1658.0,1662.0,1663.0,1661.0,1665.0,1665.0,1667.0,1667.0,1668.0,1672.0,1670.0,1673.0,1673.0,1675.0,1674.0,1678.0,1677.0,1683.0,1680.0,1682.0,1685.0,1688.0,1691.0,1688.0,1691.0,1692.0,1692.0,1697.0,1697.0,1697.0,1696.0,1701.0,1697.0,1701.0,1697.0,1697.0,1702.0,1700.0,1699.0,1697.0,1696.0,1693.0,1690.0,1689.0,1689.0,1688.0,1687.0,1685.0,1681.0,1679.0,1677.0,1674.0,1674.0,1671.0,1669.0,1668.0,1669.0,1664.0,1661.0,1662.0,1663.0,1663.0,1666.0,1662.0,1665.0,1663.0,1662.0,1663.0,1664.0,1663.0,1665.0,1665.0,1666.0,1670.0,1670.0,1671.0,1669.0,1672.0,1673.0,1669.0,1673.0,1675.0,1672.0,1671.0,1671.0,1666.0,1659.0,1658.0,1658.0,1654.0,1651.0,1647.0,1644.0,1638.0,1639.0,1634.0,1633.0,1628.0,1625.0,1629.0,1625.0,1622.0,1622.0,1624.0,1617.0,1621.0,1617.0,1615.0,1611.0,1612.0,1609.0,1607.0,1607.0,1603.0,1602.0,1598.0,1597.0,1598.0,1599.0,1593.0,1589.0,1589.0,1590.0,1591.0,1589.0,1587.0,1586.0,1588.0,1585.0,1586.0,1585.0,1584.0,1581.0,1584.0,1585.0,1579.0,1581.0,1578.0,1580.0,1579.0,1581.0,1581.0,1585.0,1584.0,1580.0,1584.0,1585.0,1582.0,1583.0,1586.0,1586.0,1585.0,1583.0,1580.0,1577.0,1574.0,1570.0,1570.0,1566.0","22","even","190567","195575","5008","59997","190574","NA","57526","183440","NA","56884","NA","NA","2302","189067","NA","190575","2443","NA","NA","NA","195874","NA","183960","NA","195575","NA","188711","NA","182925","NA","57526","3045","NA","NA","195575","190567","56884","183960","NA","Extended template","0","0","0","yes","1024"
"undefined","undefined","undefined","NA","undefined","black","yes","xpyriment","legacy","legacy","0","uniform","undefined","undefined","0","13","NA","0","13","NA","0","0","0","0","13","NA","13","0","0","NA","NA","13","NA","13","NA","13","NA","13","NA","13","NA","0","0","0","0","13","13","0","13","NA","10/11/18 13:23:09","A template containing a practice and an experimental phase","medium","yes","Experiment.osexp","C:\Users\EEGExp\Desktop","no","mono","no","18","no","white","no","Ok","yes","768","legacy","13","13","0","C:/Users/EEGExp/Desktop/subject-22.csv","xpyriment","Kafkaesque Koffka","3.2.5","yes","[ 1668.  1669.  1670.  1671.  1673.  1672.  1673.  1672.  1674.  1673.
  1672.  1675.  1675.  1680.  1677.  1677.  1676.  1679.  1675.  1677.
  1679.  1679.  1679.  1680.  1679.  1680.  1680.  1682.  1679.  1679.
  1677.  1676.  1673.  1674.  1673.  1670.  1671.  1672.  1669.  1668.
  1667.  1668.  1668.  1665.  1667.  1666.  1667.  1670.  1668.  1673.
  1673.  1672.  1675.  1674.  1676.  1678.  1677.  1677.  1674.  1677.
  1675.  1675.  1676.  1671.  1668.  1670.  1671.  1666.  1663.  1658.
  1656.  1651.  1647.  1643.  1636.  1633.  1633.  1626.  1627.  1626.
  1622.  1620.  1618.  1623.  1620.  1619.  1616.  1615.  1616.  1616.
  1618.  1620.  1618.  1618.  1618.  1619.  1621.  1623.  1623.  1626.
  1631.  1634.  1635.  1634.  1643.  1643.  1643.  1650.  1649.  1657.
  1659.  1665.  1672.  1673.  1678.  1676.  1681.  1688.  1690.  1691.
  1700.  1700.  1704.  1704.  1706.  1708.  1709.  1709.  1710.  1713.
  1713.  1712.  1714.  1714.  1713.  1716.  1718.  1715.  1718.  1719.
  1718.  1721.  1716.  1719.  1722.  1719.  1717.  1718.  1720.  1720.
  1718.  1716.  1715.  1713.  1715.  1714.  1711.  1710.  1712.  1709.
  1709.  1708.  1708.  1706.  1706.  1704.  1703.  1702.  1700.  1701.
  1697.  1699.  1697.  1700.  1698.  1696.  1694.  1697.  1695.  1694.
  1693.  1694.  1693.  1690.  1691.  1694.  1689.  1690.  1683.  1691.
  1687.  1687.  1685.  1684.  1679.  1679.  1679.  1678.  1672.  1671.
  1671.  1671.  1669.  1670.  1664.  1669.  1668.  1664.  1664.  1664.
  1667.  1668.  1667.  1666.  1670.  1670.  1671.  1672.  1672.  1674.
  1677.  1674.  1681.  1678.  1678.  1675.  1676.  1673.  1672.  1674.
  1674.  1673.  1671.  1668.  1672.  1670.  1671.  1670.  1671.  1668.
  1669.  1670.  1672.  1667.  1670.  1668.  1672.  1669.  1672.  1672.
  1675.  1671.  1671.  1671.  1670.  1670.  1671.  1671.  1674.  1675.
  1677.  1673.  1679.  1682.  1680.  1681.  1683.  1684.  1683.  1686.
  1689.  1691.  1693.  1693.  1695.  1694.  1698.  1697.  1698.  1696.
  1695.  1694.  1694.  1692.  1690.  1683.  1680.  1678.  1671.  1667.
  1664.  1657.  1655.  1650.  1647.  1643.  1638.  1635.  1631.  1630.
  1623.  1622.  1619.  1620.  1617.  1618.  1617.  1614.  1614.  1614.
  1614.  1611.  1613.  1615.  1621.  1621.  1622.  1622.  1623.  1624.
  1628.  1629.  1635.  1633.  1633.  1634.  1635.  1637.  1636.  1637.
  1637.  1631.  1635.  1630.  1629.  1627.  1627.  1625.  1623.  1620.
  1621.  1619.  1616.  1618.  1616.  1616.  1614.  1616.  1618.  1619.
  1618.  1618.  1619.  1620.  1619.  1621.  1622.  1624.  1623.  1623.
  1621.  1628.  1626.  1627.  1629.  1628.  1629.  1632.  1633.  1634.
  1634.  1636.  1640.  1638.  1643.  1641.  1645.  1645.  1646.  1647.
  1649.  1650.  1652.  1657.  1659.  1656.  1659.  1660.  1661.  1661.
  1660.  1661.  1665.  1668.  1669.  1667.  1669.  1671.  1672.  1675.]","2x = 6","0","space","NA","NA","space","601","NA","NA","601","LinregressResult(slope=0.11937168357302233, intercept=1585.440977443609, rvalue=0.26305513994982888, pvalue=9.3483506550808902e-08, stderr=0.02194530611761444)","2","legacy","0.119371683573","1024","2","48000","-16","experiment","1668.0,1669.0,1670.0,1671.0,1673.0,1672.0,1673.0,1672.0,1674.0,1673.0,1672.0,1675.0,1675.0,1680.0,1677.0,1677.0,1676.0,1679.0,1675.0,1677.0,1679.0,1679.0,1679.0,1680.0,1679.0,1680.0,1680.0,1682.0,1679.0,1679.0,1677.0,1676.0,1673.0,1674.0,1673.0,1670.0,1671.0,1672.0,1669.0,1668.0,1667.0,1668.0,1668.0,1665.0,1667.0,1666.0,1667.0,1670.0,1668.0,1673.0,1673.0,1672.0,1675.0,1674.0,1676.0,1678.0,1677.0,1677.0,1674.0,1677.0,1675.0,1675.0,1676.0,1671.0,1668.0,1670.0,1671.0,1666.0,1663.0,1658.0,1656.0,1651.0,1647.0,1643.0,1636.0,1633.0,1633.0,1626.0,1627.0,1626.0,1622.0,1620.0,1618.0,1623.0,1620.0,1619.0,1616.0,1615.0,1616.0,1616.0,1618.0,1620.0,1618.0,1618.0,1618.0,1619.0,1621.0,1623.0,1623.0,1626.0,1631.0,1634.0,1635.0,1634.0,1643.0,1643.0,1643.0,1650.0,1649.0,1657.0,1659.0,1665.0,1672.0,1673.0,1678.0,1676.0,1681.0,1688.0,1690.0,1691.0,1700.0,1700.0,1704.0,1704.0,1706.0,1708.0,1709.0,1709.0,1710.0,1713.0,1713.0,1712.0,1714.0,1714.0,1713.0,1716.0,1718.0,1715.0,1718.0,1719.0,1718.0,1721.0,1716.0,1719.0,1722.0,1719.0,1717.0,1718.0,1720.0,1720.0,1718.0,1716.0,1715.0,1713.0,1715.0,1714.0,1711.0,1710.0,1712.0,1709.0,1709.0,1708.0,1708.0,1706.0,1706.0,1704.0,1703.0,1702.0,1700.0,1701.0,1697.0,1699.0,1697.0,1700.0,1698.0,1696.0,1694.0,1697.0,1695.0,1694.0,1693.0,1694.0,1693.0,1690.0,1691.0,1694.0,1689.0,1690.0,1683.0,1691.0,1687.0,1687.0,1685.0,1684.0,1679.0,1679.0,1679.0,1678.0,1672.0,1671.0,1671.0,1671.0,1669.0,1670.0,1664.0,1669.0,1668.0,1664.0,1664.0,1664.0,1667.0,1668.0,1667.0,1666.0,1670.0,1670.0,1671.0,1672.0,1672.0,1674.0,1677.0,1674.0,1681.0,1678.0,1678.0,1675.0,1676.0,1673.0,1672.0,1674.0,1674.0,1673.0,1671.0,1668.0,1672.0,1670.0,1671.0,1670.0,1671.0,1668.0,1669.0,1670.0,1672.0,1667.0,1670.0,1668.0,1672.0,1669.0,1672.0,1672.0,1675.0,1671.0,1671.0,1671.0,1670.0,1670.0,1671.0,1671.0,1674.0,1675.0,1677.0,1673.0,1679.0,1682.0,1680.0,1681.0,1683.0,1684.0,1683.0,1686.0,1689.0,1691.0,1693.0,1693.0,1695.0,1694.0,1698.0,1697.0,1698.0,1696.0,1695.0,1694.0,1694.0,1692.0,1690.0,1683.0,1680.0,1678.0,1671.0,1667.0,1664.0,1657.0,1655.0,1650.0,1647.0,1643.0,1638.0,1635.0,1631.0,1630.0,1623.0,1622.0,1619.0,1620.0,1617.0,1618.0,1617.0,1614.0,1614.0,1614.0,1614.0,1611.0,1613.0,1615.0,1621.0,1621.0,1622.0,1622.0,1623.0,1624.0,1628.0,1629.0,1635.0,1633.0,1633.0,1634.0,1635.0,1637.0,1636.0,1637.0,1637.0,1631.0,1635.0,1630.0,1629.0,1627.0,1627.0,1625.0,1623.0,1620.0,1621.0,1619.0,1616.0,1618.0,1616.0,1616.0,1614.0,1616.0,1618.0,1619.0,1618.0,1618.0,1619.0,1620.0,1619.0,1621.0,1622.0,1624.0,1623.0,1623.0,1621.0,1628.0,1626.0,1627.0,1629.0,1628.0,1629.0,1632.0,1633.0,1634.0,1634.0,1636.0,1640.0,1638.0,1643.0,1641.0,1645.0,1645.0,1646.0,1647.0,1649.0,1650.0,1652.0,1657.0,1659.0,1656.0,1659.0,1660.0,1661.0,1661.0,1660.0,1661.0,1665.0,1668.0,1669.0,1667.0,1669.0,1671.0,1672.0,1675.0","22","even","204032","209039","5007","59997","204038","NA","57526","196406","NA","56884","NA","NA","2302","202531","NA","204039","2443","NA","NA","NA","209339","NA","196939","NA","209039","NA","202170","NA","195892","NA","57526","3045","NA","NA","209039","204032","56884","196939","NA","Extended template","0","0","0","yes","1024"
"undefined","undefined","undefined","NA","undefined","black","yes","xpyriment","legacy","legacy","0","uniform","undefined","undefined","0","14","NA","0","14","NA","0","0","0","0","14","NA","14","0","0","NA","NA","14","NA","14","NA","14","NA","14","NA","14","NA","0","0","0","0","14","14","0","14","NA","10/11/18 13:23:09","A template containing a practice and an experimental phase","easy","yes","Experiment.osexp","C:\Users\EEGExp\Desktop","no","mono","no","18","no","white","no","Ok","yes","768","legacy","14","14","0","C:/Users/EEGExp/Desktop/subject-22.csv","xpyriment","Kafkaesque Koffka","3.2.5","yes","[ 1573.  1576.  1581.  1583.  1587.  1586.  1589.  1593.  1594.  1597.
  1596.  1597.  1597.  1600.  1602.  1603.  1606.  1604.  1606.  1605.
  1607.  1606.  1607.  1606.  1610.  1609.  1608.  1613.  1614.  1614.
