"acc","accuracy","average_response_time","avg_rt","background","bidi","canvas_backend","clock_backend","color_backend","compensation","coordinates","correct","correct_instructions","count_arithmetic","count_arithmetic_task","count_blank_screen_1","count_blocksequence","count_calc_slope","count_calc_slope_1","count_collect_pupil_trace","count_end_of_experiment","count_end_of_practice","count_experiment","count_fixation_cross","count_fixation_cross_1","count_getdata","count_getdata_1","count_instructions","count_instructions2","count_letter_task_1","count_new_inline_script","count_new_logger","count_new_logger_1","count_new_pygaze_drift_correct","count_new_pygaze_drift_correct_1","count_new_pygaze_log","count_new_pygaze_log_2","count_new_pygaze_start_recording","count_new_pygaze_start_recording_1","count_new_pygaze_stop_recording","count_new_pygaze_stop_recording_1","count_practice_instructions","count_pygaze_init","count_reset_feedback","count_reversal","count_test","count_test1","count_training","count_trial_sequence","count_trial_sequence_1","datetime","description","difficulty","disable_garbage_collection","experiment_file","experiment_path","font_bold","font_family","font_italic","font_size","font_underline","foreground","form_clicks","form_response","fullscreen","height","keyboard_backend","live_row","live_row_arithmetic","live_row_training","logfile","mouse_backend","opensesame_codename","opensesame_version","practice","pupilsizes","question_no","repeat_cycle","response","response_end_of_experiment","response_end_of_practice","response_instructions","response_time","response_time_end_of_experiment","response_time_end_of_practice","response_time_instructions","result","round_decimals","sampler_backend","slope","sound_buf_size","sound_channels","sound_freq","sound_sample_size","start","str_pupilsizes","subject_nr","subject_parity","t0","t1","t2","tasktype","time_arithmetic","time_arithmetic_task","time_blank_screen_1","time_blocksequence","time_calc_slope","time_calc_slope_1","time_collect_pupil_trace","time_end_of_experiment","time_end_of_practice","time_experiment","time_fixation_cross","time_fixation_cross_1","time_getdata","time_getdata_1","time_instructions","time_instructions2","time_letter_task_1","time_new_inline_script","time_new_logger","time_new_logger_1","time_new_pygaze_drift_correct","time_new_pygaze_drift_correct_1","time_new_pygaze_log","time_new_pygaze_log_2","time_new_pygaze_start_recording","time_new_pygaze_start_recording_1","time_new_pygaze_stop_recording","time_new_pygaze_stop_recording_1","time_practice_instructions","time_pygaze_init","time_reset_feedback","time_reversal","time_test","time_test1","time_training","time_trial_sequence","time_trial_sequence_1","title","total_correct","total_response_time","total_responses","uniform_coordinates","width"
"undefined","undefined","undefined","undefined","black","yes","xpyriment","legacy","legacy","0","uniform","undefined","undefined","0","0","NA","0","0","NA","0","0","0","0","0","NA","0","NA","0","0","NA","NA","0","NA","0","NA","0","NA","0","NA","0","NA","0","0","0","0","NA","NA","0","0","NA","10/18/18 13:30:07","A template containing a practice and an experimental phase","medium","yes","Experiment.osexp","C:\Users\EEGExp\Desktop","no","mono","no","18","no","white","no","Ok","yes","768","legacy","0","0","0","C:/Users/EEGExp/Desktop/subject-0.csv","xpyriment","Kafkaesque Koffka","3.2.5","yes","[ 3331.  3337.  3332.  3337.  3333.  3332.  3340.  3340.  3338.  3340.
  3339.  3332.  3333.  3340.  3336.  3343.  3339.  3346.  3345.  3344.
  3338.  3338.  3337.  3337.  3335.  3334.  3341.  3336.  3334.  3334.
  3337.  3334.  3333.  3336.  3335.  3335.  3335.  3328.  3335.  3332.
  3332.  3333.  3328.  3328.  3322.  3319.  3319.  3315.  3314.  3306.
  3307.  3306.  3302.  3288.  3279.  3275.  3269.  3258.  3253.  3239.
  3225.  3217.  3199.  3186.  3166.  3145.  3130.  3112.  3095.  3073.
  3056.  3046.  3034.  3023.  3009.  2997.  2984.  2977.  2973.  2964.
  2959.  2954.  2947.  2942.  2940.  2936.  2936.  2934.  2928.  2930.
  2928.  2926.  2926.  2922.  2921.  2918.  2912.  2909.  2905.  2904.
  2903.  2896.  2889.  2886.  2885.  2883.  2879.  2879.  2879.  2873.
  2867.  2868.  2538.  1195.   340.  1049.  1957.  2469.  2718.  2954.
  2959.  2927.  2938.  2938.  2924.  2920.  2931.  2938.  2944.  2947.
  2958.  2960.  2961.  2957.  2958.  2953.  2951.  2944.  2936.  2932.
  2920.  2912.  2901.  2892.  2876.  2869.  2858.  2854.  2846.  2837.
  2823.  2818.  2805.  2798.  2800.  2792.  2786.  2780.  2778.  2775.
  2774.  2766.  2767.  2759.  2758.  2754.  2754.  2760.  2752.  2752.
  2751.  2749.  2746.  2747.  2748.  2741.  2741.  2740.  2737.  2737.
  2734.  2733.  2727.  2727.  2724.  2724.  2722.  2718.  2714.  2711.
  2706.  2702.  2701.  2700.  2697.  2698.  2694.  2689.  2687.  2689.
  2681.  2683.  2680.  2674.  2670.  2671.  2670.  2669.  2664.  2662.
  2662.  2661.  2659.  2658.  2660.  2660.  2658.  2656.  2655.  2653.
  2651.  2648.  2649.  2651.  2645.  2642.  2647.  2642.  2645.  2643.
  2640.  2639.  2646.  2646.  2652.  2649.  2648.  2646.  2649.  2652.
  2654.  2657.  2656.  2656.  2661.  2664.  2669.  2664.  2668.  2667.
  2667.  2672.  2678.  2678.  2675.  2669.  2667.  2669.  2674.  2672.
  2672.  2667.  2664.  2665.  2665.  2667.  2662.  2660.  2663.  2665.
  2664.  2663.  2661.  2666.  2664.  2669.  2670.  2676.  2676.  2678.
  2684.  2688.  2693.  2698.  2704.  2706.  2714.  2718.  2726.  2731.
  2736.  2743.  2749.  2754.  2763.  2767.  2769.  2775.  2786.  2789.
  2792.  2802.  2801.  2809.  2811.  2819.  2819.  2830.  2831.  2841.
  2842.  2845.  2844.  2854.  2856.  2860.  2864.  2866.  2871.  2877.
  2877.  2884.  2883.  2883.  2880.  2884.  2886.  2890.  2887.  2887.
  2888.  2893.  2893.  2891.  2893.  2891.  2896.  2895.  2897.  2898.
  2901.  2902.  2903.  2903.  2896.  2902.  2896.  2910.  2945.  2599.
  1771.   363.  1718.  2197.  2598.  2860.  2965.  2929.  2929.  2936.
  2920.  2904.  2907.  2911.  2919.  2921.  2924.  2924.  2932.  2935.
  2941.  2945.  2952.  2951.  2956.  2955.  2962.  2966.  2967.  2964.
  2963.  2967.  2968.  2969.  2970.  2967.  2971.  2973.  2974.  2973.
  2975.  2974.  2976.  2978.  2976.  2971.  2976.  2973.  2975.  2977.
  2977.  2976.  2973.  2969.  2970.  2969.  2967.  2961.  2964.  2959.
  2950.  2945.  2940.  2941.  2942.  2943.  2942.  2937.  2936.  2933.
  2931.  2931.  2931.  2922.  2918.  2918.  2909.  2906.  2901.  2896.
  2891.  2892.  2887.  2876.  2871.  2881.  2871.  2864.  2860.  2859.
  2859.  2852.  2851.  2848.  2849.  2847.  2846.  2847.  2847.  2844.
  2848.  2848.  2849.  2850.  2849.  2853.  2866.  2865.  2865.  2868.
  2873.  2876.  2881.  2889.  2890.  2897.  2898.  2905.  2920.  2931.
  2927.  2933.  2939.  2939.  2944.  2948.  2956.  2964.  2968.  2978.
  2979.]","4x = 16","0","c","NA","NA","c","1332","NA","NA","1332","LinregressResult(slope=-0.55540713071833392, intercept=3007.2564449064448, rvalue=-0.26066607478236303, pvalue=6.5297931221406089e-09, stderr=0.093989541851536046)","2","legacy","-0.555407130718","1024","2","48000","-16","experiment","3331.0,3337.0,3332.0,3337.0,3333.0,3332.0,3340.0,3340.0,3338.0,3340.0,3339.0,3332.0,3333.0,3340.0,3336.0,3343.0,3339.0,3346.0,3345.0,3344.0,3338.0,3338.0,3337.0,3337.0,3335.0,3334.0,3341.0,3336.0,3334.0,3334.0,3337.0,3334.0,3333.0,3336.0,3335.0,3335.0,3335.0,3328.0,3335.0,3332.0,3332.0,3333.0,3328.0,3328.0,3322.0,3319.0,3319.0,3315.0,3314.0,3306.0,3307.0,3306.0,3302.0,3288.0,3279.0,3275.0,3269.0,3258.0,3253.0,3239.0,3225.0,3217.0,3199.0,3186.0,3166.0,3145.0,3130.0,3112.0,3095.0,3073.0,3056.0,3046.0,3034.0,3023.0,3009.0,2997.0,2984.0,2977.0,2973.0,2964.0,2959.0,2954.0,2947.0,2942.0,2940.0,2936.0,2936.0,2934.0,2928.0,2930.0,2928.0,2926.0,2926.0,2922.0,2921.0,2918.0,2912.0,2909.0,2905.0,2904.0,2903.0,2896.0,2889.0,2886.0,2885.0,2883.0,2879.0,2879.0,2879.0,2873.0,2867.0,2868.0,2538.0,1195.0,0.0,0.0,0.0,0.0,0.0,0.0,0.0,0.0,0.0,0.0,0.0,0.0,340.0,1049.0,1957.0,2469.0,2718.0,2954.0,2959.0,2927.0,2938.0,2938.0,2924.0,2920.0,2931.0,2938.0,2944.0,2947.0,2958.0,2960.0,2961.0,2957.0,2958.0,2953.0,2951.0,2944.0,2936.0,2932.0,2920.0,2912.0,2901.0,2892.0,2876.0,2869.0,2858.0,2854.0,2846.0,2837.0,2823.0,2818.0,2805.0,2798.0,2800.0,2792.0,2786.0,2780.0,2778.0,2775.0,2774.0,2766.0,2767.0,2759.0,2758.0,2754.0,2754.0,2760.0,2752.0,2752.0,2751.0,2749.0,2746.0,2747.0,2748.0,2741.0,2741.0,2740.0,2737.0,2737.0,2734.0,2733.0,2727.0,2727.0,2724.0,2724.0,2722.0,2718.0,2714.0,2711.0,2706.0,2702.0,2701.0,2700.0,2697.0,2698.0,2694.0,2689.0,2687.0,2689.0,2681.0,2683.0,2680.0,2674.0,2670.0,2671.0,2670.0,2669.0,2664.0,2662.0,2662.0,2661.0,2659.0,2658.0,2660.0,2660.0,2658.0,2656.0,2655.0,2653.0,2651.0,2648.0,2649.0,2651.0,2645.0,2642.0,2647.0,2642.0,2645.0,2643.0,2640.0,2639.0,2646.0,2646.0,2652.0,2649.0,2648.0,2646.0,2649.0,2652.0,2654.0,2657.0,2656.0,2656.0,2661.0,2664.0,2669.0,2664.0,2668.0,2667.0,2667.0,2672.0,2678.0,2678.0,2675.0,2669.0,2667.0,2669.0,2674.0,2672.0,2672.0,2667.0,2664.0,2665.0,2665.0,2667.0,2662.0,2660.0,2663.0,2665.0,2664.0,2663.0,2661.0,2666.0,2664.0,2669.0,2670.0,2676.0,2676.0,2678.0,2684.0,2688.0,2693.0,2698.0,2704.0,2706.0,2714.0,2718.0,2726.0,2731.0,2736.0,2743.0,2749.0,2754.0,2763.0,2767.0,2769.0,2775.0,2786.0,2789.0,2792.0,2802.0,2801.0,2809.0,2811.0,2819.0,2819.0,2830.0,2831.0,2841.0,2842.0,2845.0,2844.0,2854.0,2856.0,2860.0,2864.0,2866.0,2871.0,2877.0,2877.0,2884.0,2883.0,2883.0,2880.0,2884.0,2886.0,2890.0,2887.0,2887.0,2888.0,2893.0,2893.0,2891.0,2893.0,2891.0,2896.0,2895.0,2897.0,2898.0,2901.0,2902.0,2903.0,2903.0,2896.0,2902.0,2896.0,2910.0,2945.0,2599.0,1771.0,0.0,0.0,0.0,0.0,0.0,0.0,363.0,0.0,1718.0,2197.0,2598.0,2860.0,2965.0,2929.0,2929.0,2936.0,2920.0,2904.0,2907.0,2911.0,2919.0,2921.0,2924.0,2924.0,2932.0,2935.0,2941.0,2945.0,2952.0,2951.0,2956.0,2955.0,2962.0,2966.0,2967.0,2964.0,2963.0,2967.0,2968.0,2969.0,2970.0,2967.0,2971.0,2973.0,2974.0,2973.0,2975.0,2974.0,2976.0,2978.0,2976.0,2971.0,2976.0,2973.0,2975.0,2977.0,2977.0,2976.0,2973.0,2969.0,2970.0,2969.0,2967.0,2961.0,2964.0,2959.0,2950.0,2945.0,2940.0,2941.0,2942.0,2943.0,2942.0,2937.0,2936.0,2933.0,2931.0,2931.0,2931.0,2922.0,2918.0,2918.0,2909.0,2906.0,2901.0,2896.0,2891.0,2892.0,2887.0,2876.0,2871.0,2881.0,2871.0,2864.0,2860.0,2859.0,2859.0,2852.0,2851.0,2848.0,2849.0,2847.0,2846.0,2847.0,2847.0,2844.0,2848.0,2848.0,2849.0,2850.0,2849.0,2853.0,2866.0,2865.0,2865.0,2868.0,2873.0,2876.0,2881.0,2889.0,2890.0,2897.0,2898.0,2905.0,2920.0,2931.0,2927.0,2933.0,2939.0,2939.0,2944.0,2948.0,2956.0,2964.0,2968.0,2978.0,2979.0","0","even","NA","NA","NA","arithmetic","84374","88022","NA","80363","93023","NA","79942","NA","NA","1664","86517","NA","88023","NA","1761","NA","NA","NA","93341","NA","84686","NA","93038","NA","86167","NA","NA","NA","80363","3094","NA","NA","NA","NA","79942","84686","NA","Extended template","0","0","0","yes","1024"
"undefined","undefined","undefined","undefined","black","yes","xpyriment","legacy","legacy","0","uniform","undefined","undefined","0","1","NA","0","1","NA","0","0","0","0","1","NA","1","NA","0","0","NA","NA","1","NA","1","NA","1","NA","1","NA","1","NA","0","0","0","0","NA","NA","0","1","NA","10/18/18 13:30:07","A template containing a practice and an experimental phase","easy","yes","Experiment.osexp","C:\Users\EEGExp\Desktop","no","mono","no","18","no","white","no","Ok","yes","768","legacy","1","1","0","C:/Users/EEGExp/Desktop/subject-0.csv","xpyriment","Kafkaesque Koffka","3.2.5","yes","[ 2998.  3008.  3010.  3020.  3016.  3025.  3028.  3034.  3044.  3053.
  3053.  3060.  3061.  3065.  3078.  3076.  3080.  3087.  3101.  3100.
  3111.  3119.  3122.  3132.  3131.  3138.  3139.  3150.  3151.  3160.
  3161.  3170.  3171.  3176.  3180.  3187.  3189.  3189.  3196.  3198.
  3197.  3203.  3206.  3209.  3210.  3213.  3209.  3215.  3219.  3224.
  3224.  3225.  3229.  3233.  3234.  3235.  3244.  3250.  3253.  3257.
  3254.  3258.  3265.  3267.  3270.  3272.  3283.  3281.  3284.  3287.
  3285.  3289.  3286.  3289.  3286.  3289.  3282.  3277.  3274.  3274.
  3275.  3265.  3256.  3258.  3256.  3248.  3250.  3244.  3241.  3244.
  3244.  3237.  3238.  3237.  3235.  3239.  3234.  3237.  3240.  3236.
  3239.  3239.  3233.  3235.  3244.  3239.  3235.  3236.  3239.  3236.
  3230.  3232.  3224.  3225.  3227.  3222.  3222.  3211.  3211.  3202.
  3197.  3198.  3187.  3173.  3170.  3225.  2320.   456.  1088.  1917.
  2334.  2723.  2995.  3185.  3237.  3205.  3166.  3182.  3175.  3179.
  3157.  3161.  3165.  3163.  3165.  3164.  3167.  3163.  3158.  3157.
  3164.  3160.  3151.  3147.  3143.  3142.  3142.  3133.  3127.  3119.
  3117.  3118.  3114.  3105.  3102.  3097.  3094.  3088.  3084.  3079.
  3076.  3073.  3073.  3066.  3066.  3067.  3063.  3065.  3067.  3066.
  3060.  3061.  3059.  3064.  3063.  3063.  3068.  3066.  3072.  3061.
  3068.  3065.  3068.  3070.  3070.  3071.  3073.  3077.  3077.  3075.
  3080.  3078.  3083.  3081.  3080.  3087.  3085.  3086.  3094.  3097.
  3101.  3098.  3105.  3103.  3112.  3109.  3107.  3108.  3106.  3111.
  3105.  3111.  3108.  3103.  3101.  3102.  3101.  3101.  3095.  3098.
  3098.  3094.  3095.  3091.  3089.  3086.  3082.  3084.  3080.  3080.
  3078.  3072.  3071.  3071.  3067.  3072.  3072.  3074.  3074.  3071.
  3071.  3069.  3069.  3074.  3077.  3080.  3079.  3077.  3088.  3086.
  3087.  3090.  3096.  3097.  3097.  3107.  3109.  3116.  3108.  3113.
  3121.  3131.  3133.  3136.  3137.  3142.  3148.  3151.  3155.  3167.
  3166.  3174.  3180.  3190.  3189.  3193.  3204.  3208.  3210.  3220.
  3223.  3230.  3239.  3245.  3256.  3261.  3266.  3275.  3278.  3281.
  3286.  3293.  3292.  3295.  3304.  3312.  3315.  3317.  3318.  3323.
  3323.  3325.  3328.  3327.  3329.  3333.  3332.  3338.  3332.  3335.
  3331.  3329.  3330.  3325.  3322.  3322.  3318.  3317.  3313.  3310.
  3306.  3302.  3291.  3287.  3279.  3279.  3271.  3258.  3253.  3242.
  3238.  3231.  3223.  3220.  3213.  3204.  3193.  3189.  3176.  3167.
  3166.  3162.  3154.  3146.  3147.  3135.  3130.  3130.  3125.  3117.
  3115.  3111.  3102.  3099.  3096.  3087.  3086.  3086.  3080.  3072.
  3067.  3068.  3067.  3062.  3060.  3057.  3055.  3053.  3050.  3048.
  3042.  3041.  3043.  3041.  3041.  3041.  3041.  3041.  3043.  3042.
  3045.  3042.  3044.  3045.  3050.  3050.  3048.  3048.  3051.  3051.
  3055.  3059.  3058.  3059.  3060.  3064.  3063.  3062.  3066.  3069.
  3071.  3076.  3073.  3080.  3080.  3086.  3087.  3092.  3092.  3092.
  3091.  3094.  3096.  3092.  3097.  3091.  3097.  3096.  3101.  3102.
  3099.  3103.  3100.  3101.  3100.  3104.  3104.  3103.  3105.  3108.
  3109.  3107.  3108.  3103.  3101.  3105.  3100.  3098.  3097.  3087.
  3084.  3081.  3069.  3061.  3045.  3038.  3036.  3026.  3012.  3011.
  2994.  2987.  2976.  2975.  2965.  2959.  2956.  2954.  2946.  2943.
  2940.  2941.  2937.  2937.  2938.  2943.  2940.  2944.  2945.  2954.
  2953.  2957.  2958.  2962.  2962.  2967.  2970.  2977.  2977.  2984.]","6 + 2","0","c","NA","NA","c","1332","NA","NA","1332","LinregressResult(slope=-0.17143387536314744, intercept=3162.8951796669589, rvalue=-0.12425598145916697, pvalue=0.0058839500826556512, stderr=0.061971302041875446)","2","legacy","-0.171433875363","1024","2","48000","-16","experiment","2998.0,3008.0,3010.0,3020.0,3016.0,3025.0,3028.0,3034.0,3044.0,3053.0,3053.0,3060.0,3061.0,3065.0,3078.0,3076.0,3080.0,3087.0,3101.0,3100.0,3111.0,3119.0,3122.0,3132.0,3131.0,3138.0,3139.0,3150.0,3151.0,3160.0,3161.0,3170.0,3171.0,3176.0,3180.0,3187.0,3189.0,3189.0,3196.0,3198.0,3197.0,3203.0,3206.0,3209.0,3210.0,3213.0,3209.0,3215.0,3219.0,3224.0,3224.0,3225.0,3229.0,3233.0,3234.0,3235.0,3244.0,3250.0,3253.0,3257.0,3254.0,3258.0,3265.0,3267.0,3270.0,3272.0,3283.0,3281.0,3284.0,3287.0,3285.0,3289.0,3286.0,3289.0,3286.0,3289.0,3282.0,3277.0,3274.0,3274.0,3275.0,3265.0,3256.0,3258.0,3256.0,3248.0,3250.0,3244.0,3241.0,3244.0,3244.0,3237.0,3238.0,3237.0,3235.0,3239.0,3234.0,3237.0,3240.0,3236.0,3239.0,3239.0,3233.0,3235.0,3244.0,3239.0,3235.0,3236.0,3239.0,3236.0,3230.0,3232.0,3224.0,3225.0,3227.0,3222.0,3222.0,3211.0,3211.0,3202.0,3197.0,3198.0,3187.0,3173.0,3170.0,3225.0,2320.0,0.0,0.0,0.0,0.0,0.0,0.0,0.0,0.0,0.0,0.0,456.0,1088.0,1917.0,2334.0,2723.0,2995.0,3185.0,3237.0,3205.0,3166.0,3182.0,3175.0,3179.0,3157.0,3161.0,3165.0,3163.0,3165.0,3164.0,3167.0,3163.0,3158.0,3157.0,3164.0,3160.0,3151.0,3147.0,3143.0,3142.0,3142.0,3133.0,3127.0,3119.0,3117.0,3118.0,3114.0,3105.0,3102.0,3097.0,3094.0,3088.0,3084.0,3079.0,3076.0,3073.0,3073.0,3066.0,3066.0,3067.0,3063.0,3065.0,3067.0,3066.0,3060.0,3061.0,3059.0,3064.0,3063.0,3063.0,3068.0,3066.0,3072.0,3061.0,3068.0,3065.0,3068.0,3070.0,3070.0,3071.0,3073.0,3077.0,3077.0,3075.0,3080.0,3078.0,3083.0,3081.0,3080.0,3087.0,3085.0,3086.0,3094.0,3097.0,3101.0,3098.0,3105.0,3103.0,3112.0,3109.0,3107.0,3108.0,3106.0,3111.0,3105.0,3111.0,3108.0,3103.0,3101.0,3102.0,3101.0,3101.0,3095.0,3098.0,3098.0,3094.0,3095.0,3091.0,3089.0,3086.0,3082.0,3084.0,3080.0,3080.0,3078.0,3072.0,3071.0,3071.0,3067.0,3072.0,3072.0,3074.0,3074.0,3071.0,3071.0,3069.0,3069.0,3074.0,3077.0,3080.0,3079.0,3077.0,3088.0,3086.0,3087.0,3090.0,3096.0,3097.0,3097.0,3107.0,3109.0,3116.0,3108.0,3113.0,3121.0,3131.0,3133.0,3136.0,3137.0,3142.0,3148.0,3151.0,3155.0,3167.0,3166.0,3174.0,3180.0,3190.0,3189.0,3193.0,3204.0,3208.0,3210.0,3220.0,3223.0,3230.0,3239.0,3245.0,3256.0,3261.0,3266.0,3275.0,3278.0,3281.0,3286.0,3293.0,3292.0,3295.0,3304.0,3312.0,3315.0,3317.0,3318.0,3323.0,3323.0,3325.0,3328.0,3327.0,3329.0,3333.0,3332.0,3338.0,3332.0,3335.0,3331.0,3329.0,3330.0,3325.0,3322.0,3322.0,3318.0,3317.0,3313.0,3310.0,3306.0,3302.0,3291.0,3287.0,3279.0,3279.0,3271.0,3258.0,3253.0,3242.0,3238.0,3231.0,3223.0,3220.0,3213.0,3204.0,3193.0,3189.0,3176.0,3167.0,3166.0,3162.0,3154.0,3146.0,3147.0,3135.0,3130.0,3130.0,3125.0,3117.0,3115.0,3111.0,3102.0,3099.0,3096.0,3087.0,3086.0,3086.0,3080.0,3072.0,3067.0,3068.0,3067.0,3062.0,3060.0,3057.0,3055.0,3053.0,3050.0,3048.0,3042.0,3041.0,3043.0,3041.0,3041.0,3041.0,3041.0,3041.0,3043.0,3042.0,3045.0,3042.0,3044.0,3045.0,3050.0,3050.0,3048.0,3048.0,3051.0,3051.0,3055.0,3059.0,3058.0,3059.0,3060.0,3064.0,3063.0,3062.0,3066.0,3069.0,3071.0,3076.0,3073.0,3080.0,3080.0,3086.0,3087.0,3092.0,3092.0,3092.0,3091.0,3094.0,3096.0,3092.0,3097.0,3091.0,3097.0,3096.0,3101.0,3102.0,3099.0,3103.0,3100.0,3101.0,3100.0,3104.0,3104.0,3103.0,3105.0,3108.0,3109.0,3107.0,3108.0,3103.0,3101.0,3105.0,3100.0,3098.0,3097.0,3087.0,3084.0,3081.0,3069.0,3061.0,3045.0,3038.0,3036.0,3026.0,3012.0,3011.0,2994.0,2987.0,2976.0,2975.0,2965.0,2959.0,2956.0,2954.0,2946.0,2943.0,2940.0,2941.0,2937.0,2937.0,2938.0,2943.0,2940.0,2944.0,2945.0,2954.0,2953.0,2957.0,2958.0,2962.0,2962.0,2967.0,2970.0,2977.0,2977.0,2984.0","0","even","NA","NA","NA","arithmetic","84374","97541","NA","80363","102542","NA","79942","NA","NA","1664","96037","NA","97542","NA","1761","NA","NA","NA","102846","NA","94267","NA","102543","NA","95688","NA","93378","NA","80363","3094","NA","NA","NA","NA","79942","94267","NA","Extended template","0","0","0","yes","1024"
"undefined","undefined","undefined","undefined","black","yes","xpyriment","legacy","legacy","0","uniform","undefined","undefined","0","2","NA","0","2","NA","0","0","0","0","2","NA","2","NA","0","0","NA","NA","2","NA","2","NA","2","NA","2","NA","2","NA","0","0","0","0","NA","NA","0","2","NA","10/18/18 13:30:07","A template containing a practice and an experimental phase","medium","yes","Experiment.osexp","C:\Users\EEGExp\Desktop","no","mono","no","18","no","white","no","Ok","yes","768","legacy","2","2","0","C:/Users/EEGExp/Desktop/subject-0.csv","xpyriment","Kafkaesque Koffka","3.2.5","yes","[ 2760.  2753.  2751.  2753.  2750.  2750.  2743.  2751.  2749.  2746.
  2740.  2746.  2749.  2746.  2745.  2745.  2746.  2745.  2745.  2745.
  2745.  2749.  2755.  2758.  2757.  2761.  2758.  2760.  2763.  2773.
  2768.  2769.  2776.  2778.  2778.  2782.  2785.  2788.  2790.  2792.
  2794.  2800.  2792.  2796.  2808.  2807.  2799.  2799.  2803.  2802.
  2803.  2802.  2804.  2801.  2801.  2799.  2802.  2801.  2799.  2801.
  2795.  2795.  2794.  2794.  2796.  2795.  2792.  2792.  2789.  2793.
  2786.  2783.  2778.  2776.  2772.  2767.  2764.  2764.  2754.  2750.
  2749.  2759.  2749.  2749.  2751.  2748.  2747.  2743.  2737.  2736.
  2737.  2737.  2737.  2738.  2745.  2744.  2748.  2749.  2756.  2763.
  2764.  2769.  2778.  2781.  2788.  2790.  2798.  2797.  2822.  2802.
  1744.  1145.  1871.  2381.  2682.  2933.  3017.  3005.  3003.  3023.
  3024.  3022.  2995.  2997.  2996.  3005.  3013.  3020.  3016.  3019.
  3019.  3017.  3012.  3012.  3005.  3007.  2993.  2993.  2978.  2972.
  2967.  2957.  2943.  2935.  2928.  2917.  2906.  2897.  2886.  2882.
  2875.  2864.  2851.  2843.  2832.  2827.  2818.  2809.  2807.  2799.
  2796.  2786.  2781.  2772.  2762.  2759.  2753.  2749.  2745.  2748.
  2744.  2739.  2741.  2740.  2740.  2735.  2735.  2733.  2730.  2729.
  2734.  2732.  2733.  2728.  2730.  2728.  2732.  2734.  2735.  2734.
  2738.  2734.  2733.  2734.  2736.  2736.  2737.  2738.  2747.  2747.
  2742.  2743.  2743.  2742.  2741.  2743.  2745.  2745.  2745.  2744.
  2747.  2749.  2744.  2752.  2750.  2751.  2749.  2753.  2755.  2751.
  2756.  2752.  2752.  2755.  2752.  2750.  2750.  2751.  2746.  2746.
  2751.  2748.  2748.  2745.  2751.  2746.  2748.  2741.  2738.  2740.
  2735.  2732.  2734.  2727.  2725.  2726.  2717.  2713.  2709.  2703.
  2705.  2699.  2698.  2692.  2693.  2689.  2688.  2688.  2692.  2694.
  2691.  2693.  2698.  2697.  2698.  2705.  2707.  2706.  2709.  2709.
  2721.  2725.  2732.  2732.  2739.  2739.  2750.  2749.  2756.  2758.
  2766.  2765.  2770.  2774.  2779.  2789.  2796.  2799.  2799.  2804.
  2809.  2810.  2813.  2814.  2815.  2818.  2821.  2825.  2828.  2830.
  2834.  2835.  2833.  2831.  2865.  2876.   350.  1138.  1791.  2196.
  2552.  2728.  2936.  2948.  2921.  2888.  2896.  2893.  2894.  2883.
  2862.  2862.  2860.  2858.  2853.  2847.  2840.  2835.  2835.  2829.
  2823.  2812.  2806.  2801.  2791.  2786.  2778.  2769.  2766.  2763.
  2757.  2748.  2747.  2746.  2738.  2736.  2730.  2726.  2731.  2728.
  2722.  2721.  2715.  2714.  2709.  2712.  2710.  2708.  2704.  2705.
  2706.  2706.  2705.  2701.  2699.  2703.  2705.  2705.  2703.  2696.
  2699.  2703.  2700.  2697.  2694.  2696.  2691.  2690.  2693.  2692.
  2686.  2689.  2688.  2686.  2683.  2681.  2677.  2677.  2669.  2673.
  2668.  2667.  2659.  2659.  2657.  2655.  2653.  2656.  2656.  2651.
  2649.  2647.  2645.  2640.  2637.  2646.  2641.  2642.  2637.  2637.
  2634.  2633.  2637.  2634.  2638.  2637.  2638.  2635.  2634.  2634.
  2634.  2635.  2634.  2637.  2634.  2644.  2642.  2637.  2638.  2642.
  2644.  2647.  2644.  2645.  2648.  2653.  2652.  2655.  2658.  2660.
  2660.  2665.  2671.  2677.  2678.  2675.  2676.  2678.  2689.  2690.
  2687.  2694.  2691.  2696.  2701.  2705.  2703.  2710.  2710.  2713.
  2717.  2722.  2729.  2724.  2729.  2736.  2737.  2739.  2739.  2741.
  2745.  2745.  2748.  2748.  2748.  2749.]","7x = 28","0","c","NA","NA","c","1332","NA","NA","1332","LinregressResult(slope=-0.27530479917885714, intercept=2805.2400265369306, rvalue=-0.19754427292884891, pvalue=1.4155829436993037e-05, stderr=0.06275039984172319)","2","legacy","-0.275304799179","1024","2","48000","-16","experiment","2760.0,2753.0,2751.0,2753.0,2750.0,2750.0,2743.0,2751.0,2749.0,2746.0,2740.0,2746.0,2749.0,2746.0,2745.0,2745.0,2746.0,2745.0,2745.0,2745.0,2745.0,2749.0,2755.0,2758.0,2757.0,2761.0,2758.0,2760.0,2763.0,2773.0,2768.0,2769.0,2776.0,2778.0,2778.0,2782.0,2785.0,2788.0,2790.0,2792.0,2794.0,2800.0,2792.0,2796.0,2808.0,2807.0,2799.0,2799.0,2803.0,2802.0,2803.0,2802.0,2804.0,2801.0,2801.0,2799.0,2802.0,2801.0,2799.0,2801.0,2795.0,2795.0,2794.0,2794.0,2796.0,2795.0,2792.0,2792.0,2789.0,2793.0,2786.0,2783.0,2778.0,2776.0,2772.0,2767.0,2764.0,2764.0,2754.0,2750.0,2749.0,2759.0,2749.0,2749.0,2751.0,2748.0,2747.0,2743.0,2737.0,2736.0,2737.0,2737.0,2737.0,2738.0,2745.0,2744.0,2748.0,2749.0,2756.0,2763.0,2764.0,2769.0,2778.0,2781.0,2788.0,2790.0,2798.0,2797.0,2822.0,2802.0,1744.0,0.0,0.0,0.0,0.0,0.0,0.0,0.0,0.0,0.0,0.0,0.0,0.0,0.0,1145.0,1871.0,2381.0,2682.0,2933.0,3017.0,3005.0,3003.0,3023.0,3024.0,3022.0,2995.0,2997.0,2996.0,3005.0,3013.0,3020.0,3016.0,3019.0,3019.0,3017.0,3012.0,3012.0,3005.0,3007.0,2993.0,2993.0,2978.0,2972.0,2967.0,2957.0,2943.0,2935.0,2928.0,2917.0,2906.0,2897.0,2886.0,2882.0,2875.0,2864.0,2851.0,2843.0,2832.0,2827.0,2818.0,2809.0,2807.0,2799.0,2796.0,2786.0,2781.0,2772.0,2762.0,2759.0,2753.0,2749.0,2745.0,2748.0,2744.0,2739.0,2741.0,2740.0,2740.0,2735.0,2735.0,2733.0,2730.0,2729.0,2734.0,2732.0,2733.0,2728.0,2730.0,2728.0,2732.0,2734.0,2735.0,2734.0,2738.0,2734.0,2733.0,2734.0,2736.0,2736.0,2737.0,2738.0,2747.0,2747.0,2742.0,2743.0,2743.0,2742.0,2741.0,2743.0,2745.0,2745.0,2745.0,2744.0,2747.0,2749.0,2744.0,2752.0,2750.0,2751.0,2749.0,2753.0,2755.0,2751.0,2756.0,2752.0,2752.0,2755.0,2752.0,2750.0,2750.0,2751.0,2746.0,2746.0,2751.0,2748.0,2748.0,2745.0,2751.0,2746.0,2748.0,2741.0,2738.0,2740.0,2735.0,2732.0,2734.0,2727.0,2725.0,2726.0,2717.0,2713.0,2709.0,2703.0,2705.0,2699.0,2698.0,2692.0,2693.0,2689.0,2688.0,2688.0,2692.0,2694.0,2691.0,2693.0,2698.0,2697.0,2698.0,2705.0,2707.0,2706.0,2709.0,2709.0,2721.0,2725.0,2732.0,2732.0,2739.0,2739.0,2750.0,2749.0,2756.0,2758.0,2766.0,2765.0,2770.0,2774.0,2779.0,2789.0,2796.0,2799.0,2799.0,2804.0,2809.0,2810.0,2813.0,2814.0,2815.0,2818.0,2821.0,2825.0,2828.0,2830.0,2834.0,2835.0,2833.0,2831.0,2865.0,2876.0,0.0,0.0,0.0,0.0,0.0,0.0,0.0,0.0,0.0,0.0,350.0,0.0,1138.0,1791.0,2196.0,2552.0,2728.0,2936.0,2948.0,2921.0,2888.0,2896.0,2893.0,2894.0,2883.0,2862.0,2862.0,2860.0,2858.0,2853.0,2847.0,2840.0,2835.0,2835.0,2829.0,2823.0,2812.0,2806.0,2801.0,2791.0,2786.0,2778.0,2769.0,2766.0,2763.0,2757.0,2748.0,2747.0,2746.0,2738.0,2736.0,2730.0,2726.0,2731.0,2728.0,2722.0,2721.0,2715.0,2714.0,2709.0,2712.0,2710.0,2708.0,2704.0,2705.0,2706.0,2706.0,2705.0,2701.0,2699.0,2703.0,2705.0,2705.0,2703.0,2696.0,2699.0,2703.0,2700.0,2697.0,2694.0,2696.0,2691.0,2690.0,2693.0,2692.0,2686.0,2689.0,2688.0,2686.0,2683.0,2681.0,2677.0,2677.0,2669.0,2673.0,2668.0,2667.0,2659.0,2659.0,2657.0,2655.0,2653.0,2656.0,2656.0,2651.0,2649.0,2647.0,2645.0,2640.0,2637.0,2646.0,2641.0,2642.0,2637.0,2637.0,2634.0,2633.0,2637.0,2634.0,2638.0,2637.0,2638.0,2635.0,2634.0,2634.0,2634.0,2635.0,2634.0,2637.0,2634.0,2644.0,2642.0,2637.0,2638.0,2642.0,2644.0,2647.0,2644.0,2645.0,2648.0,2653.0,2652.0,2655.0,2658.0,2660.0,2660.0,2665.0,2671.0,2677.0,2678.0,2675.0,2676.0,2678.0,2689.0,2690.0,2687.0,2694.0,2691.0,2696.0,2701.0,2705.0,2703.0,2710.0,2710.0,2713.0,2717.0,2722.0,2729.0,2724.0,2729.0,2736.0,2737.0,2739.0,2739.0,2741.0,2745.0,2745.0,2748.0,2748.0,2748.0,2749.0","0","even","NA","NA","NA","arithmetic","84374","107551","NA","80363","112552","NA","79942","NA","NA","1664","106047","NA","107552","NA","1761","NA","NA","NA","112856","NA","103732","NA","112553","NA","105694","NA","102863","NA","80363","3094","NA","NA","NA","NA","79942","103732","NA","Extended template","0","0","0","yes","1024"
"undefined","undefined","undefined","undefined","black","yes","xpyriment","legacy","legacy","0","uniform","undefined","undefined","0","3","NA","0","3","NA","0","0","0","0","3","NA","3","NA","0","0","NA","NA","3","NA","3","NA","3","NA","3","NA","3","NA","0","0","0","0","NA","NA","0","3","NA","10/18/18 13:30:07","A template containing a practice and an experimental phase","medium","yes","Experiment.osexp","C:\Users\EEGExp\Desktop","no","mono","no","18","no","white","no","Ok","yes","768","legacy","3","3","0","C:/Users/EEGExp/Desktop/subject-0.csv","xpyriment","Kafkaesque Koffka","3.2.5","yes","[ 2438.  2446.  2448.  2458.  2466.  2466.  2479.  2485.  2489.  2503.
  2506.  2511.  2521.  2529.  2539.  2544.  2550.  2559.  2568.  2569.
  2578.  2581.  2587.  2592.  2599.  2604.  2607.  2611.  2615.  2621.
  2624.  2622.  2625.  2626.  2634.  2633.  2640.  2638.  2641.  2642.
  2641.  2646.  2643.  2645.  2639.  2638.  2634.  2634.  2637.  2630.
  2622.  2620.  2617.  2613.  2609.  2604.  2602.  2595.  2592.  2584.
  2581.  2579.  2573.  2570.  2569.  2569.  2570.  2571.  2563.  2560.
  2568.  2564.  2555.  2549.  2548.  2550.  2547.  2539.  2539.  2535.
  2536.  2536.  2537.  2534.  2530.  2528.  2530.  2527.  2526.  2528.
  2521.  2520.  2519.  2518.  2515.  2512.  2507.  2507.  2497.  2495.
  2495.  2488.  2482.  2481.  2479.  2475.  2474.  2469.  2467.  2464.
  2463.  2462.  2462.  2459.  2455.  2455.  2456.  2455.  2453.  2452.
  2466.  2461.  2460.  2462.  2461.  2460.  2457.  2461.  2462.  2463.
  2462.  2463.  2465.  2464.  2467.  2468.  2469.  2467.  2469.  2462.
  2485.  2502.  2033.  1132.  1142.  1939.  2391.  2558.  2516.  2518.
  2484.  2489.  2493.  2494.  2493.  2501.  2503.  2500.  2506.  2499.
  2497.  2494.  2490.  2480.  2472.  2463.  2449.  2436.  2424.  2414.
  2401.  2392.  2384.  2381.  2368.  2356.  2350.  2348.  2338.  2335.
  2325.  2320.  2317.  2316.  2313.  2312.  2305.  2308.  2306.  2305.
  2303.  2303.  2305.  2305.  2308.  2306.  2305.  2306.  2309.  2310.
  2315.  2315.  2315.  2315.  2319.  2322.  2322.  2330.  2330.  2329.
  2330.  2331.  2332.  2333.  2333.  2333.  2330.  2330.  2330.  2333.
  2336.  2336.  2338.  2339.  2342.  2347.  2345.  2347.  2346.  2347.
  2352.  2357.  2358.  2359.  2362.  2365.  2370.  2373.  2378.  2382.
  2384.  2389.  2394.  2393.  2402.  2406.  2407.  2408.  2410.  2410.
  2410.  2411.  2412.  2409.  2411.  2413.  2411.  2408.  2406.  2403.
  2402.  2404.  2400.  2396.  2399.  2401.  2393.  2391.  2388.  2389.
  2388.  2384.  2379.  2378.  2375.  2370.  2365.  2361.  2359.  2357.
  2353.  2356.  2352.  2347.  2347.  2343.  2341.  2336.  2335.  2335.
  2336.  2333.  2333.  2335.  2334.  2338.  2341.  2340.  2339.  2342.
  2338.  2339.  2342.  2343.  2344.  2343.  2341.  2346.  2348.  2351.
  2347.  2353.  2358.  2359.  2360.  2362.  2362.  2367.  2368.  2368.
  2370.  2374.  2373.  2377.  2376.  2379.  2385.  2385.  2385.  2388.
  2389.  2390.  2392.  2394.  2393.  2406.  2411.  2408.  2401.  2401.
  2402.  2402.  2404.  2402.  2405.  2406.  2406.  2408.  2408.  2409.
  2411.  2411.  2411.  2414.  2413.  2411.  2412.  2412.  2415.  2412.
  2412.  2413.  2410.  2412.  2410.  2411.  2414.  2414.  2415.  2418.
  2417.  2420.  2425.  2427.  2429.  2433.  2436.  2446.  2456.  2457.
  2468.  2473.  2476.  2481.  2481.  2487.  2489.  2488.  2492.  2498.
  2496.  2502.  2507.  2511.  2511.  2511.  2518.  2519.  2524.  2526.
  2525.  2532.  2536.  2535.  2535.  2537.  2535.  2541.  2541.  2542.
  2542.  2537.  2539.  2543.  2542.  2543.  2541.  2543.  2543.  2542.
  2543.  2544.  2548.  2543.  2536.  2534.  2538.  2531.  2527.  2526.
  2526.  2525.  2521.  2520.  2516.  2516.  2513.  2515.  2516.  2516.
  2515.  2511.  2513.  2513.  2510.  2512.  2511.  2512.  2510.  2511.
  2513.  2508.  2507.  2508.  2507.  2510.  2512.  2507.  2509.  2512.
  2513.  2511.  2510.  2515.  2513.  2511.  2507.  2510.  2514.  2511.
  2509.  2513.  2510.  2510.  2514.  2516.  2526.  2524.  2528.  2528.
  2533.  2537.  2545.]","6x = 12","0","c","NA","NA","c","1332","NA","NA","1332","LinregressResult(slope=-0.096418555285594829, intercept=2472.155236548886, rvalue=-0.1062338165472244, pvalue=0.019528244196962422, stderr=0.041149136103285217)","2","legacy","-0.0964185552856","1024","2","48000","-16","experiment","2438.0,2446.0,2448.0,2458.0,2466.0,2466.0,2479.0,2485.0,2489.0,2503.0,2506.0,2511.0,2521.0,2529.0,2539.0,2544.0,2550.0,2559.0,2568.0,2569.0,2578.0,2581.0,2587.0,2592.0,2599.0,2604.0,2607.0,2611.0,2615.0,2621.0,2624.0,2622.0,2625.0,2626.0,2634.0,2633.0,2640.0,2638.0,2641.0,2642.0,2641.0,2646.0,2643.0,2645.0,2639.0,2638.0,2634.0,2634.0,2637.0,2630.0,2622.0,2620.0,2617.0,2613.0,2609.0,2604.0,2602.0,2595.0,2592.0,2584.0,2581.0,2579.0,2573.0,2570.0,2569.0,2569.0,2570.0,2571.0,2563.0,2560.0,2568.0,2564.0,2555.0,2549.0,2548.0,2550.0,2547.0,2539.0,2539.0,2535.0,2536.0,2536.0,2537.0,2534.0,2530.0,2528.0,2530.0,2527.0,2526.0,2528.0,2521.0,2520.0,2519.0,2518.0,2515.0,2512.0,2507.0,2507.0,2497.0,2495.0,2495.0,2488.0,2482.0,2481.0,2479.0,2475.0,2474.0,2469.0,2467.0,2464.0,2463.0,2462.0,2462.0,2459.0,2455.0,2455.0,2456.0,2455.0,2453.0,2452.0,2466.0,2461.0,2460.0,2462.0,2461.0,2460.0,2457.0,2461.0,2462.0,2463.0,2462.0,2463.0,2465.0,2464.0,2467.0,2468.0,2469.0,2467.0,2469.0,2462.0,2485.0,2502.0,2033.0,1132.0,0.0,0.0,0.0,0.0,0.0,0.0,0.0,0.0,0.0,0.0,0.0,0.0,0.0,0.0,0.0,0.0,0.0,1142.0,1939.0,2391.0,2558.0,2516.0,2518.0,2484.0,2489.0,2493.0,2494.0,2493.0,2501.0,2503.0,2500.0,2506.0,2499.0,2497.0,2494.0,2490.0,2480.0,2472.0,2463.0,2449.0,2436.0,2424.0,2414.0,2401.0,2392.0,2384.0,2381.0,2368.0,2356.0,2350.0,2348.0,2338.0,2335.0,2325.0,2320.0,2317.0,2316.0,2313.0,2312.0,2305.0,2308.0,2306.0,2305.0,2303.0,2303.0,2305.0,2305.0,2308.0,2306.0,2305.0,2306.0,2309.0,2310.0,2315.0,2315.0,2315.0,2315.0,2319.0,2322.0,2322.0,2330.0,2330.0,2329.0,2330.0,2331.0,2332.0,2333.0,2333.0,2333.0,2330.0,2330.0,2330.0,2333.0,2336.0,2336.0,2338.0,2339.0,2342.0,2347.0,2345.0,2347.0,2346.0,2347.0,2352.0,2357.0,2358.0,2359.0,2362.0,2365.0,2370.0,2373.0,2378.0,2382.0,2384.0,2389.0,2394.0,2393.0,2402.0,2406.0,2407.0,2408.0,2410.0,2410.0,2410.0,2411.0,2412.0,2409.0,2411.0,2413.0,2411.0,2408.0,2406.0,2403.0,2402.0,2404.0,2400.0,2396.0,2399.0,2401.0,2393.0,2391.0,2388.0,2389.0,2388.0,2384.0,2379.0,2378.0,2375.0,2370.0,2365.0,2361.0,2359.0,2357.0,2353.0,2356.0,2352.0,2347.0,2347.0,2343.0,2341.0,2336.0,2335.0,2335.0,2336.0,2333.0,2333.0,2335.0,2334.0,2338.0,2341.0,2340.0,2339.0,2342.0,2338.0,2339.0,2342.0,2343.0,2344.0,2343.0,2341.0,2346.0,2348.0,2351.0,2347.0,2353.0,2358.0,2359.0,2360.0,2362.0,2362.0,2367.0,2368.0,2368.0,2370.0,2374.0,2373.0,2377.0,2376.0,2379.0,2385.0,2385.0,2385.0,2388.0,2389.0,2390.0,2392.0,2394.0,2393.0,2406.0,2411.0,2408.0,2401.0,2401.0,2402.0,2402.0,2404.0,2402.0,2405.0,2406.0,2406.0,2408.0,2408.0,2409.0,2411.0,2411.0,2411.0,2414.0,2413.0,2411.0,2412.0,2412.0,2415.0,2412.0,2412.0,2413.0,2410.0,2412.0,2410.0,2411.0,2414.0,2414.0,2415.0,2418.0,2417.0,2420.0,2425.0,2427.0,2429.0,2433.0,2436.0,2446.0,2456.0,2457.0,2468.0,2473.0,2476.0,2481.0,2481.0,2487.0,2489.0,2488.0,2492.0,2498.0,2496.0,2502.0,2507.0,2511.0,2511.0,2511.0,2518.0,2519.0,2524.0,2526.0,2525.0,2532.0,2536.0,2535.0,2535.0,2537.0,2535.0,2541.0,2541.0,2542.0,2542.0,2537.0,2539.0,2543.0,2542.0,2543.0,2541.0,2543.0,2543.0,2542.0,2543.0,2544.0,2548.0,2543.0,2536.0,2534.0,2538.0,2531.0,2527.0,2526.0,2526.0,2525.0,2521.0,2520.0,2516.0,2516.0,2513.0,2515.0,2516.0,2516.0,2515.0,2511.0,2513.0,2513.0,2510.0,2512.0,2511.0,2512.0,2510.0,2511.0,2513.0,2508.0,2507.0,2508.0,2507.0,2510.0,2512.0,2507.0,2509.0,2512.0,2513.0,2511.0,2510.0,2515.0,2513.0,2511.0,2507.0,2510.0,2514.0,2511.0,2509.0,2513.0,2510.0,2510.0,2514.0,2516.0,2526.0,2524.0,2528.0,2528.0,2533.0,2537.0,2545.0","0","even","NA","NA","NA","arithmetic","84374","120183","NA","80363","125184","NA","79942","NA","NA","1664","118679","NA","120184","NA","1761","NA","NA","NA","125488","NA","113757","NA","125185","NA","118327","NA","112881","NA","80363","3094","NA","NA","NA","NA","79942","113757","NA","Extended template","0","0","0","yes","1024"
"undefined","undefined","undefined","undefined","black","yes","xpyriment","legacy","legacy","0","uniform","undefined","undefined","0","4","NA","0","4","NA","0","0","0","0","4","NA","4","NA","0","0","NA","NA","4","NA","4","NA","4","NA","4","NA","4","NA","0","0","0","0","NA","NA","0","4","NA","10/18/18 13:30:07","A template containing a practice and an experimental phase","hard","yes","Experiment.osexp","C:\Users\EEGExp\Desktop","no","mono","no","18","no","white","no","Ok","yes","768","legacy","4","4","0","C:/Users/EEGExp/Desktop/subject-0.csv","xpyriment","Kafkaesque Koffka","3.2.5","yes","[ 2285.  2293.  2294.  2300.  2300.  2303.  2308.  2311.  2312.  2311.
  2313.  2312.  2312.  2313.  2313.  2316.  2319.  2321.  2321.  2320.
  2326.  2330.  2332.  2336.  2338.  2340.  2347.  2350.  2358.  2363.
  2374.  2378.  2381.  2383.  2389.  2392.  2399.  2409.  2417.  2417.
  2423.  2428.  2430.  2439.  2442.  2445.  2450.  2455.  2462.  2466.
  2474.  2480.  2487.  2489.  2498.  2506.  2506.  2515.  2526.  2530.
  2537.  2546.  2550.  2555.  2559.  2568.  2566.  2563.  2566.  2561.
  2561.  2556.  2556.  2549.  2542.  2538.  2538.  2526.  2524.  2516.
  2512.  2510.  2500.  2496.  2487.  2489.  2492.  2482.  2475.  2478.
  2470.  2468.  2466.  2465.  2465.  2463.  2468.  2469.  2465.  2466.
  2472.  2472.  2475.  2475.  2482.  2480.  2484.  2485.  2492.  2498.
  2500.  2506.  2510.  2510.  2512.  2516.  2526.  2529.  2530.  2536.
  2535.  2541.  2546.  2546.  2548.  2549.  2558.  2557.  2561.  2563.
  2569.  2572.  2574.  2574.  2578.  2583.  2584.  2586.  2590.  2597.
  2599.  2601.  2605.  2609.  2607.  2611.  2611.  2611.  2617.  2620.
  2622.  2628.  2628.  2636.  2638.  2637.  2644.  2643.  2644.  2649.
  2652.  2652.  2651.  2655.  2656.  2649.  2648.  2650.  2648.  2647.
  2645.  2647.  2644.  2645.  2642.  2641.  2641.  2642.  2640.  2637.
  2636.  2636.  2634.  2627.  2657.  2472.  1183.  1050.  1715.  2054.
  2308.  2579.  2607.  2565.  2529.  2539.  2540.  2517.  2479.  2470.
  2462.  2453.  2448.  2441.  2431.  2424.  2415.  2401.  2391.  2386.
  2378.  2366.  2360.  2350.  2346.  2338.  2333.  2324.  2323.  2320.
  2315.  2315.  2316.  2313.  2313.  2313.  2312.  2306.  2307.  2305.
  2308.  2306.  2307.  2305.  2302.  2300.  2302.  2303.  2304.  2305.
  2307.  2305.  2305.  2305.  2307.  2308.  2313.  2312.  2316.  2317.
  2319.  2321.  2340.  2346.  2347.  2350.  2357.  2356.  2356.  2352.
  2355.  2356.  2360.  2361.  2367.  2368.  2368.  2370.  2373.  2381.
  2383.  2382.  2386.  2390.  2385.  2389.  2390.  2391.  2395.  2398.
  2400.  2402.  2402.  2409.  2411.  2415.  2417.  2421.  2424.  2433.
  2431.  2437.  2443.  2445.  2452.  2454.  2461.  2466.  2467.  2475.
  2474.  2484.  2489.  2495.  2500.  2513.  2518.  2518.  2523.  2531.
  2536.  2539.  2546.  2551.  2550.  2557.  2558.  2561.  2564.  2564.
  2569.  2575.  2576.  2580.  2581.  2584.  2586.  2588.  2592.  2591.
  2593.  2602.  2600.  2608.  2606.  2609.  2612.  2660.  2650.  2234.
  1259.   342.   346.   925.  1215.  1984.  2408.  2682.  2786.  2749.
  2747.  2745.  2746.  2725.  2718.  2714.  2710.  2713.  2714.  2716.
  2713.  2711.  2708.  2710.  2710.  2705.  2702.  2692.  2691.  2689.
  2685.  2675.  2671.  2664.  2659.  2648.  2636.  2628.  2618.  2607.
  2602.  2591.  2579.  2565.  2558.  2551.  2541.  2532.  2528.  2516.
  2514.  2507.  2494.  2489.  2481.  2478.  2476.  2475.  2472.  2470.
  2464.  2464.  2462.  2466.  2460.  2462.  2464.  2465.  2472.  2474.
  2477.  2479.  2477.  2481.  2482.  2479.  2481.  2487.  2487.  2487.
  2492.  2490.  2496.  2494.  2499.  2498.  2502.  2502.  2504.  2503.
  2504.  2504.  2503.  2539.  2560.  2047.  1150.   793.]","3x - 5 = 10","0","c","NA","NA","c","1332","NA","NA","1332","LinregressResult(slope=-0.015039481128225634, intercept=2457.0477414501115, rvalue=-0.0072848553608652576, pvalue=0.87916558673941791, stderr=0.098868319178396502)","2","legacy","-0.0150394811282","1024","2","48000","-16","experiment","2285.0,2293.0,2294.0,2300.0,2300.0,2303.0,2308.0,2311.0,2312.0,2311.0,2313.0,2312.0,2312.0,2313.0,2313.0,2316.0,2319.0,2321.0,2321.0,2320.0,2326.0,2330.0,2332.0,2336.0,2338.0,2340.0,2347.0,2350.0,2358.0,2363.0,2374.0,2378.0,2381.0,2383.0,2389.0,2392.0,2399.0,2409.0,2417.0,2417.0,2423.0,2428.0,2430.0,2439.0,2442.0,2445.0,2450.0,2455.0,2462.0,2466.0,2474.0,2480.0,2487.0,2489.0,2498.0,2506.0,2506.0,2515.0,2526.0,2530.0,2537.0,2546.0,2550.0,2555.0,2559.0,2568.0,2566.0,2563.0,2566.0,2561.0,2561.0,2556.0,2556.0,2549.0,2542.0,2538.0,2538.0,2526.0,2524.0,2516.0,2512.0,2510.0,2500.0,2496.0,2487.0,2489.0,2492.0,2482.0,2475.0,2478.0,2470.0,2468.0,2466.0,2465.0,2465.0,2463.0,2468.0,2469.0,2465.0,2466.0,2472.0,2472.0,2475.0,2475.0,2482.0,2480.0,2484.0,2485.0,2492.0,2498.0,2500.0,2506.0,2510.0,2510.0,2512.0,2516.0,2526.0,2529.0,2530.0,2536.0,2535.0,2541.0,2546.0,2546.0,2548.0,2549.0,2558.0,2557.0,2561.0,2563.0,2569.0,2572.0,2574.0,2574.0,2578.0,2583.0,2584.0,2586.0,2590.0,2597.0,2599.0,2601.0,2605.0,2609.0,2607.0,2611.0,2611.0,2611.0,2617.0,2620.0,2622.0,2628.0,2628.0,2636.0,2638.0,2637.0,2644.0,2643.0,2644.0,2649.0,2652.0,2652.0,2651.0,2655.0,2656.0,2649.0,2648.0,2650.0,2648.0,2647.0,2645.0,2647.0,2644.0,2645.0,2642.0,2641.0,2641.0,2642.0,2640.0,2637.0,2636.0,2636.0,2634.0,2627.0,2657.0,2472.0,1183.0,0.0,0.0,0.0,0.0,0.0,0.0,0.0,0.0,0.0,0.0,0.0,0.0,0.0,0.0,0.0,0.0,1050.0,1715.0,2054.0,2308.0,2579.0,2607.0,2565.0,2529.0,2539.0,2540.0,2517.0,2479.0,2470.0,2462.0,2453.0,2448.0,2441.0,2431.0,2424.0,2415.0,2401.0,2391.0,2386.0,2378.0,2366.0,2360.0,2350.0,2346.0,2338.0,2333.0,2324.0,2323.0,2320.0,2315.0,2315.0,2316.0,2313.0,2313.0,2313.0,2312.0,2306.0,2307.0,2305.0,2308.0,2306.0,2307.0,2305.0,2302.0,2300.0,2302.0,2303.0,2304.0,2305.0,2307.0,2305.0,2305.0,2305.0,2307.0,2308.0,2313.0,2312.0,2316.0,2317.0,2319.0,2321.0,2340.0,2346.0,2347.0,2350.0,2357.0,2356.0,2356.0,2352.0,2355.0,2356.0,2360.0,2361.0,2367.0,2368.0,2368.0,2370.0,2373.0,2381.0,2383.0,2382.0,2386.0,2390.0,2385.0,2389.0,2390.0,2391.0,2395.0,2398.0,2400.0,2402.0,2402.0,2409.0,2411.0,2415.0,2417.0,2421.0,2424.0,2433.0,2431.0,2437.0,2443.0,2445.0,2452.0,2454.0,2461.0,2466.0,2467.0,2475.0,2474.0,2484.0,2489.0,2495.0,2500.0,2513.0,2518.0,2518.0,2523.0,2531.0,2536.0,2539.0,2546.0,2551.0,2550.0,2557.0,2558.0,2561.0,2564.0,2564.0,2569.0,2575.0,2576.0,2580.0,2581.0,2584.0,2586.0,2588.0,2592.0,2591.0,2593.0,2602.0,2600.0,2608.0,2606.0,2609.0,2612.0,2660.0,2650.0,2234.0,1259.0,0.0,342.0,0.0,0.0,0.0,0.0,0.0,0.0,0.0,0.0,346.0,925.0,1215.0,1984.0,2408.0,2682.0,2786.0,2749.0,2747.0,2745.0,2746.0,2725.0,2718.0,2714.0,2710.0,2713.0,2714.0,2716.0,2713.0,2711.0,2708.0,2710.0,2710.0,2705.0,2702.0,2692.0,2691.0,2689.0,2685.0,2675.0,2671.0,2664.0,2659.0,2648.0,2636.0,2628.0,2618.0,2607.0,2602.0,2591.0,2579.0,2565.0,2558.0,2551.0,2541.0,2532.0,2528.0,2516.0,2514.0,2507.0,2494.0,2489.0,2481.0,2478.0,2476.0,2475.0,2472.0,2470.0,2464.0,2464.0,2462.0,2466.0,2460.0,2462.0,2464.0,2465.0,2472.0,2474.0,2477.0,2479.0,2477.0,2481.0,2482.0,2479.0,2481.0,2487.0,2487.0,2487.0,2492.0,2490.0,2496.0,2494.0,2499.0,2498.0,2502.0,2502.0,2504.0,2503.0,2504.0,2504.0,2503.0,2539.0,2560.0,2047.0,1150.0,793.0,0.0,0.0,0.0,0.0,0.0,0.0,0.0,0.0,0.0,0.0,0.0,0.0,0.0,0.0,0.0,0.0,0.0,0.0,0.0,0.0,0.0,0.0,0.0,0.0,0.0,0.0,0.0,0.0,0.0,0.0,0.0,0.0,0.0,0.0,0.0,0.0,0.0","0","even","NA","NA","NA","arithmetic","84374","132261","NA","80363","137262","NA","79942","NA","NA","1664","130757","NA","132262","NA","1761","NA","NA","NA","137566","NA","126371","NA","137263","NA","130402","NA","125501","NA","80363","3094","NA","NA","NA","NA","79942","126371","NA","Extended template","0","0","0","yes","1024"
"undefined","undefined","undefined","undefined","black","yes","xpyriment","legacy","legacy","0","uniform","undefined","undefined","0","5","NA","0","5","NA","0","0","0","0","5","NA","5","NA","0","0","NA","NA","5","NA","5","NA","5","NA","5","NA","5","NA","0","0","0","0","NA","NA","0","5","NA","10/18/18 13:30:07","A template containing a practice and an experimental phase","hard","yes","Experiment.osexp","C:\Users\EEGExp\Desktop","no","mono","no","18","no","white","no","Ok","yes","768","legacy","5","5","0","C:/Users/EEGExp/Desktop/subject-0.csv","xpyriment","Kafkaesque Koffka","3.2.5","yes","[ 2855.  2860.  2862.  2858.  2864.  2862.  2857.  2858.  2857.  2862.
  2864.  2862.  2860.  2860.  2863.  2873.  2870.  2873.  2879.  2879.
  2883.  2889.  2895.  2898.  2901.  2908.  2910.  2913.  2918.  2918.
  2921.  2923.  2923.  2920.  2921.  2921.  2919.  2918.  2917.  2916.
  2921.  2917.  2918.  2914.  2912.  2907.  2905.  2900.  2898.  2899.
  2900.  2884.  2882.  2881.  2882.  2877.  2878.  2874.  2874.  2871.
  2865.  2868.  2863.  2862.  2865.  2868.  2867.  2863.  2861.  2866.
  2863.  2865.  2865.  2866.  2867.  2867.  2864.  2866.  2868.  2873.
  2864.  2861.  2857.  2850.  2846.  2841.  2837.  2829.  2829.  2823.
  2818.  2812.  2810.  2807.  2798.  2800.  2790.  2789.  2787.  2782.
  2777.  2774.  2774.  2775.  2769.  2765.  2763.  2762.  2763.  2755.
  2751.  2753.  2753.  2753.  2749.  2749.  2745.  2749.  2750.  2745.
  2732.  2731.  2730.  2725.  2725.  2723.  2721.  2714.  2714.  2709.
  2707.  2703.  2702.  2701.  2697.  2701.  2694.  2696.  2690.  2690.
  2686.  2686.  2683.  2679.  2674.  2675.  2672.  2671.  2665.  2661.
  2656.  2655.  2653.  2645.  2639.  2633.  2632.  2620.  2615.  2610.
  2601.  2597.  2591.  2588.  2579.  2582.  2574.  2573.  2566.  2558.
  2552.  2547.  2544.  2537.  2530.  2529.  2526.  2526.  2520.  2516.
  2515.  2515.  2514.  2513.  2509.  2507.  2509.  2510.  2510.  2509.
  2515.  2509.  2509.  2511.  2514.  2517.  2514.  2517.  2519.  2529.
  2529.  2519.  2524.  2531.  2533.  2531.  2538.  2539.  2544.  2545.
  2549.  2552.  2553.  2558.  2560.  2567.  2569.  2575.  2574.  2583.
  2582.  2588.  2589.  2589.  2590.  2595.  2601.  2606.  2605.  2611.
  2619.  2618.  2624.  2626.  2632.  2629.  2632.  2635.  2644.  2648.
  2651.  2653.  2654.  2654.  2666.  2660.  2665.  2668.  2671.  2668.
  2671.  2689.  2715.  2699.  2708.  2718.  2715.  2713.  2707.  2706.
  2712.  2712.  2714.  2715.  2716.  2720.  2726.  2727.  2731.  2736.
  2740.  2740.  2746.  2747.  2751.  2754.  2758.  2762.  2761.  2771.
  2768.  2767.  2769.  2772.  2773.  2775.  2775.  2776.  2777.  2773.
  2776.  2773.  2774.  2768.  2765.  2766.  2760.  2759.  2751.  2755.
  2748.  2739.  2741.  2736.  2731.  2724.  2723.  2721.  2712.  2706.
  2702.  2704.  2695.  2696.  2701.  2699.  2692.  2694.  2687.  2686.
  2687.  2692.  2688.  2688.  2686.  2686.  2684.  2709.  2712.  2281.
  1669.   977.   464.   345.   384.  1235.  2048.  2464.  2758.  2730.
  2714.  2702.  2677.  2673.  2677.  2674.  2673.  2674.  2668.  2664.
  2659.  2648.  2640.  2630.  2622.  2608.  2600.  2591.  2576.  2572.
  2556.  2545.  2540.  2525.  2521.  2516.  2514.  2505.  2501.  2495.
  2494.  2484.  2485.  2481.  2481.  2472.  2471.  2469.  2467.  2465.
  2466.  2462.  2462.  2463.  2460.  2455.  2460.  2459.  2457.  2457.
  2465.  2461.  2461.  2462.  2463.  2465.  2465.  2465.  2462.  2475.
  2382.  1611.   273.   329.  1057.  1735.  2104.  2456.  2542.  2498.
  2502.  2508.  2466.  2460.  2461.  2459.  2460.  2464.  2463.  2461.
  2458.  2453.  2451.  2449.  2450.  2443.  2439.  2431.  2427.  2420.
  2417.  2409.  2407.  2399.  2397.  2391.  2388.  2387.  2383.  2379.
  2376.  2374.  2371.  2366.  2366.  2363.  2360.  2355.  2353.  2349.
  2349.  2347.  2344.  2345.  2343.  2338.  2335.  2332.  2331.  2331.
  2335.  2334.  2337.  2332.  2340.  2342.  2341.  2344.  2348.  2353.
  2353.  2362.  2364.]","7x - 3 = 18","0","c","NA","NA","c","1332","NA","NA","1332","LinregressResult(slope=-1.2589595732298917, intercept=2906.4368438026304, rvalue=-0.534169281245233, pvalue=2.9931698051791026e-36, stderr=0.091806435408583104)","2","legacy","-1.25895957323","1024","2","48000","-16","experiment","2855.0,2860.0,2862.0,2858.0,2864.0,2862.0,2857.0,2858.0,2857.0,2862.0,2864.0,2862.0,2860.0,2860.0,2863.0,2873.0,2870.0,2873.0,2879.0,2879.0,2883.0,2889.0,2895.0,2898.0,2901.0,2908.0,2910.0,2913.0,2918.0,2918.0,2921.0,2923.0,2923.0,2920.0,2921.0,2921.0,2919.0,2918.0,2917.0,2916.0,2921.0,2917.0,2918.0,2914.0,2912.0,2907.0,2905.0,2900.0,2898.0,2899.0,2900.0,2884.0,2882.0,2881.0,2882.0,2877.0,2878.0,2874.0,2874.0,2871.0,2865.0,2868.0,2863.0,2862.0,2865.0,2868.0,2867.0,2863.0,2861.0,2866.0,2863.0,2865.0,2865.0,2866.0,2867.0,2867.0,2864.0,2866.0,2868.0,2873.0,2864.0,2861.0,2857.0,2850.0,2846.0,2841.0,2837.0,2829.0,2829.0,2823.0,2818.0,2812.0,2810.0,2807.0,2798.0,2800.0,2790.0,2789.0,2787.0,2782.0,2777.0,2774.0,2774.0,2775.0,2769.0,2765.0,2763.0,2762.0,2763.0,2755.0,2751.0,2753.0,2753.0,2753.0,2749.0,2749.0,2745.0,2749.0,2750.0,2745.0,2732.0,2731.0,2730.0,2725.0,2725.0,2723.0,2721.0,2714.0,2714.0,2709.0,2707.0,2703.0,2702.0,2701.0,2697.0,2701.0,2694.0,2696.0,2690.0,2690.0,2686.0,2686.0,2683.0,2679.0,2674.0,2675.0,2672.0,2671.0,2665.0,2661.0,2656.0,2655.0,2653.0,2645.0,2639.0,2633.0,2632.0,2620.0,2615.0,2610.0,2601.0,2597.0,2591.0,2588.0,2579.0,2582.0,2574.0,2573.0,2566.0,2558.0,2552.0,2547.0,2544.0,2537.0,2530.0,2529.0,2526.0,2526.0,2520.0,2516.0,2515.0,2515.0,2514.0,2513.0,2509.0,2507.0,2509.0,2510.0,2510.0,2509.0,2515.0,2509.0,2509.0,2511.0,2514.0,2517.0,2514.0,2517.0,2519.0,2529.0,2529.0,2519.0,2524.0,2531.0,2533.0,2531.0,2538.0,2539.0,2544.0,2545.0,2549.0,2552.0,2553.0,2558.0,2560.0,2567.0,2569.0,2575.0,2574.0,2583.0,2582.0,2588.0,2589.0,2589.0,2590.0,2595.0,2601.0,2606.0,2605.0,2611.0,2619.0,2618.0,2624.0,2626.0,2632.0,2629.0,2632.0,2635.0,2644.0,2648.0,2651.0,2653.0,2654.0,2654.0,2666.0,2660.0,2665.0,2668.0,2671.0,2668.0,2671.0,2689.0,2715.0,2699.0,2708.0,2718.0,2715.0,2713.0,2707.0,2706.0,2712.0,2712.0,2714.0,2715.0,2716.0,2720.0,2726.0,2727.0,2731.0,2736.0,2740.0,2740.0,2746.0,2747.0,2751.0,2754.0,2758.0,2762.0,2761.0,2771.0,2768.0,2767.0,2769.0,2772.0,2773.0,2775.0,2775.0,2776.0,2777.0,2773.0,2776.0,2773.0,2774.0,2768.0,2765.0,2766.0,2760.0,2759.0,2751.0,2755.0,2748.0,2739.0,2741.0,2736.0,2731.0,2724.0,2723.0,2721.0,2712.0,2706.0,2702.0,2704.0,2695.0,2696.0,2701.0,2699.0,2692.0,2694.0,2687.0,2686.0,2687.0,2692.0,2688.0,2688.0,2686.0,2686.0,2684.0,2709.0,2712.0,2281.0,1669.0,977.0,464.0,345.0,0.0,0.0,0.0,0.0,0.0,0.0,0.0,0.0,0.0,0.0,0.0,0.0,0.0,0.0,384.0,0.0,1235.0,2048.0,2464.0,2758.0,2730.0,2714.0,2702.0,2677.0,2673.0,2677.0,2674.0,2673.0,2674.0,2668.0,2664.0,2659.0,2648.0,2640.0,2630.0,2622.0,2608.0,2600.0,2591.0,2576.0,2572.0,2556.0,2545.0,2540.0,2525.0,2521.0,2516.0,2514.0,2505.0,2501.0,2495.0,2494.0,2484.0,2485.0,2481.0,2481.0,2472.0,2471.0,2469.0,2467.0,2465.0,2466.0,2462.0,2462.0,2463.0,2460.0,2455.0,2460.0,2459.0,2457.0,2457.0,2465.0,2461.0,2461.0,2462.0,2463.0,2465.0,2465.0,2465.0,2462.0,2475.0,2382.0,1611.0,0.0,273.0,0.0,0.0,0.0,0.0,0.0,0.0,0.0,0.0,0.0,0.0,329.0,0.0,1057.0,1735.0,2104.0,2456.0,2542.0,2498.0,2502.0,2508.0,2466.0,2460.0,2461.0,2459.0,2460.0,2464.0,2463.0,2461.0,2458.0,2453.0,2451.0,2449.0,2450.0,2443.0,2439.0,2431.0,2427.0,2420.0,2417.0,2409.0,2407.0,2399.0,2397.0,2391.0,2388.0,2387.0,2383.0,2379.0,2376.0,2374.0,2371.0,2366.0,2366.0,2363.0,2360.0,2355.0,2353.0,2349.0,2349.0,2347.0,2344.0,2345.0,2343.0,2338.0,2335.0,2332.0,2331.0,2331.0,2335.0,2334.0,2337.0,2332.0,2340.0,2342.0,2341.0,2344.0,2348.0,2353.0,2353.0,2362.0,2364.0","0","even","NA","NA","NA","arithmetic","84374","142658","NA","80363","147659","NA","79942","NA","NA","1664","141153","NA","142659","NA","1761","NA","NA","NA","147963","NA","138450","NA","147660","NA","140801","NA","137578","NA","80363","3094","NA","NA","NA","NA","79942","138450","NA","Extended template","0","0","0","yes","1024"
"undefined","undefined","undefined","undefined","black","yes","xpyriment","legacy","legacy","0","uniform","undefined","undefined","0","6","NA","0","6","NA","0","0","0","0","6","NA","6","NA","0","0","NA","NA","6","NA","6","NA","6","NA","6","NA","6","NA","0","0","0","0","NA","NA","0","6","NA","10/18/18 13:30:07","A template containing a practice and an experimental phase","hard","yes","Experiment.osexp","C:\Users\EEGExp\Desktop","no","mono","no","18","no","white","no","Ok","yes","768","legacy","6","6","0","C:/Users/EEGExp/Desktop/subject-0.csv","xpyriment","Kafkaesque Koffka","3.2.5","yes","[ 2831.  2832.  2836.  2841.  2841.  2845.  2848.  2849.  2854.  2857.
  2859.  2866.  2868.  2871.  2870.  2875.  2882.  2883.  2889.  2890.
  2895.  2895.  2899.  2900.  2907.  2910.  2917.  2915.  2917.  2921.
  2922.  2929.  2931.  2929.  2922.  2952.  2445.  1027.  1724.  2096.
  2496.  2698.  2908.  2882.  2840.  2851.  2851.  2819.  2799.  2791.
  2783.  2782.  2775.  2765.  2762.  2750.  2740.  2730.  2714.  2701.
  2692.  2674.  2667.  2662.  2651.  2642.  2630.  2617.  2615.  2610.
  2601.  2600.  2594.  2588.  2588.  2580.  2573.  2571.  2564.  2564.
  2568.  2563.  2559.  2556.  2560.  2560.  2556.  2548.  2551.  2554.
  2551.  2554.  2551.  2554.  2554.  2557.  2564.  2563.  2564.  2567.
  2570.  2577.  2580.  2585.  2590.  2594.  2600.  2604.  2606.  2614.
  2614.  2622.  2625.  2632.  2636.  2637.  2643.  2646.  2647.  2648.
  2651.  2651.  2655.  2657.  2656.  2663.  2664.  2663.  2661.  2661.
  2662.  2667.  2666.  2667.  2667.  2664.  2667.  2691.  2686.  2677.
  2681.  2683.  2682.  2682.  2679.  2683.  2687.  2687.  2685.  2687.
  2689.  2688.  2694.  2695.  2698.  2699.  2699.  2707.  2710.  2710.
  2717.  2720.  2719.  2721.  2724.  2730.  2734.  2741.  2745.  2751.
  2754.  2759.  2766.  2775.  2778.  2784.  2789.  2800.  2805.  2806.
  2816.  2822.  2836.  2838.  2847.  2853.  2861.  2865.  2868.  2880.
  2884.  2891.  2897.  2904.  2908.  2919.  2923.  2933.  2931.  2937.
  2942.  2947.  2957.  2959.  2961.  2965.  2960.  2960.  2961.  2963.
  2960.  2964.  2962.  2962.  2966.  2966.  2968.  2965.  2962.  2955.
  2954.  2959.  2960.  2961.  2957.  2958.  2957.  2957.  2955.  2957.
  2959.  2958.  2957.  2963.  2963.  2967.  2968.  2972.  2968.  2971.
  2979.  2975.  2978.  2980.  2979.  2975.  2981.  2986.  2985.  2992.
  2989.  2992.  2987.  2987.  2988.  2990.  2991.  2990.  2991.  2983.
  2987.  2984.  2980.  2982.  2982.  2981.  2977.  2974.  2972.  2980.
  2977.  2974.  2973.  2972.  2979.  2977.  2981.  2981.  2981.  2979.
  2983.  2981.  2982.  2984.  2985.  2984.  2981.  2993.  2983.  2985.
  2984.  2985.  2982.  2982.  2981.  3012.  3002.  2355.  1065.   421.
   391.  1180.  2011.  2381.  2742.  3013.  3033.  2994.  2995.  2981.
  2953.  2950.  2950.  2951.  2948.  2945.  2945.  2935.  2935.  2930.
  2918.  2916.  2908.  2905.  2882.  2876.  2866.  2858.  2844.  2832.
  2828.  2816.  2805.  2797.  2788.  2780.  2774.  2761.  2756.  2748.
  2748.  2736.  2734.  2731.  2728.  2725.  2722.  2723.  2719.  2726.
  2717.  2725.  2721.  2724.  2725.  2721.  2727.  2729.  2727.  2727.
  2736.  2736.  2732.  2732.  2737.  2741.  2735.  2736.  2736.  2734.
  2733.  2732.  2732.  2734.  2734.  2730.  2727.  2729.  2726.  2724.
  2724.  2723.  2723.  2715.  2713.  2714.  2716.  2707.  2708.  2707.
  2708.  2705.  2711.  2709.  2710.  2710.  2708.  2706.  2710.  2709.
  2709.  2710.  2708.  2716.  2703.  2709.  2711.  2706.  2708.  2710.
  2712.  2711.  2710.  2710.  2717.  2713.  2713.  2711.  2713.  2710.
  2713.  2714.  2714.  2721.  2722.  2720.  2720.  2722.  2723.  2724.
  2720.  2723.  2725.  2723.  2726.  2727.  2730.  2732.  2730.  2733.
  2735.  2737.  2739.  2743.  2744.  2743.  2747.  2755.  2753.  2758.
  2757.  2758.  2769.  2777.  2775.  2772.  2776.  2773.  2780.  2782.
  2792.  2788.  2790.  2798.  2801.  2808.  2816.  2819.  2824.  2831.
  2835.  2842.  2851.  2859.  2864.]","3x - 3 = 6","0","c","NA","NA","c","1332","NA","NA","1332","LinregressResult(slope=0.11503636231307977, intercept=2738.6297668221187, rvalue=0.062262319972954332, pvalue=0.17550833774372979, stderr=0.084788283348371907)","2","legacy","0.115036362313","1024","2","48000","-16","experiment","2831.0,2832.0,2836.0,2841.0,2841.0,2845.0,2848.0,2849.0,2854.0,2857.0,2859.0,2866.0,2868.0,2871.0,2870.0,2875.0,2882.0,2883.0,2889.0,2890.0,2895.0,2895.0,2899.0,2900.0,2907.0,2910.0,2917.0,2915.0,2917.0,2921.0,2922.0,2929.0,2931.0,2929.0,2922.0,2952.0,2445.0,0.0,0.0,0.0,0.0,0.0,0.0,0.0,0.0,0.0,0.0,0.0,0.0,0.0,0.0,1027.0,1724.0,2096.0,2496.0,2698.0,2908.0,2882.0,2840.0,2851.0,2851.0,2819.0,2799.0,2791.0,2783.0,2782.0,2775.0,2765.0,2762.0,2750.0,2740.0,2730.0,2714.0,2701.0,2692.0,2674.0,2667.0,2662.0,2651.0,2642.0,2630.0,2617.0,2615.0,2610.0,2601.0,2600.0,2594.0,2588.0,2588.0,2580.0,2573.0,2571.0,2564.0,2564.0,2568.0,2563.0,2559.0,2556.0,2560.0,2560.0,2556.0,2548.0,2551.0,2554.0,2551.0,2554.0,2551.0,2554.0,2554.0,2557.0,2564.0,2563.0,2564.0,2567.0,2570.0,2577.0,2580.0,2585.0,2590.0,2594.0,2600.0,2604.0,2606.0,2614.0,2614.0,2622.0,2625.0,2632.0,2636.0,2637.0,2643.0,2646.0,2647.0,2648.0,2651.0,2651.0,2655.0,2657.0,2656.0,2663.0,2664.0,2663.0,2661.0,2661.0,2662.0,2667.0,2666.0,2667.0,2667.0,2664.0,2667.0,2691.0,2686.0,2677.0,2681.0,2683.0,2682.0,2682.0,2679.0,2683.0,2687.0,2687.0,2685.0,2687.0,2689.0,2688.0,2694.0,2695.0,2698.0,2699.0,2699.0,2707.0,2710.0,2710.0,2717.0,2720.0,2719.0,2721.0,2724.0,2730.0,2734.0,2741.0,2745.0,2751.0,2754.0,2759.0,2766.0,2775.0,2778.0,2784.0,2789.0,2800.0,2805.0,2806.0,2816.0,2822.0,2836.0,2838.0,2847.0,2853.0,2861.0,2865.0,2868.0,2880.0,2884.0,2891.0,2897.0,2904.0,2908.0,2919.0,2923.0,2933.0,2931.0,2937.0,2942.0,2947.0,2957.0,2959.0,2961.0,2965.0,2960.0,2960.0,2961.0,2963.0,2960.0,2964.0,2962.0,2962.0,2966.0,2966.0,2968.0,2965.0,2962.0,2955.0,2954.0,2959.0,2960.0,2961.0,2957.0,2958.0,2957.0,2957.0,2955.0,2957.0,2959.0,2958.0,2957.0,2963.0,2963.0,2967.0,2968.0,2972.0,2968.0,2971.0,2979.0,2975.0,2978.0,2980.0,2979.0,2975.0,2981.0,2986.0,2985.0,2992.0,2989.0,2992.0,2987.0,2987.0,2988.0,2990.0,2991.0,2990.0,2991.0,2983.0,2987.0,2984.0,2980.0,2982.0,2982.0,2981.0,2977.0,2974.0,2972.0,2980.0,2977.0,2974.0,2973.0,2972.0,2979.0,2977.0,2981.0,2981.0,2981.0,2979.0,2983.0,2981.0,2982.0,2984.0,2985.0,2984.0,2981.0,2993.0,2983.0,2985.0,2984.0,2985.0,2982.0,2982.0,2981.0,3012.0,3002.0,2355.0,1065.0,421.0,0.0,0.0,0.0,0.0,0.0,0.0,0.0,0.0,0.0,0.0,391.0,0.0,1180.0,2011.0,2381.0,2742.0,3013.0,3033.0,2994.0,2995.0,2981.0,2953.0,2950.0,2950.0,2951.0,2948.0,2945.0,2945.0,2935.0,2935.0,2930.0,2918.0,2916.0,2908.0,2905.0,2882.0,2876.0,2866.0,2858.0,2844.0,2832.0,2828.0,2816.0,2805.0,2797.0,2788.0,2780.0,2774.0,2761.0,2756.0,2748.0,2748.0,2736.0,2734.0,2731.0,2728.0,2725.0,2722.0,2723.0,2719.0,2726.0,2717.0,2725.0,2721.0,2724.0,2725.0,2721.0,2727.0,2729.0,2727.0,2727.0,2736.0,2736.0,2732.0,2732.0,2737.0,2741.0,2735.0,2736.0,2736.0,2734.0,2733.0,2732.0,2732.0,2734.0,2734.0,2730.0,2727.0,2729.0,2726.0,2724.0,2724.0,2723.0,2723.0,2715.0,2713.0,2714.0,2716.0,2707.0,2708.0,2707.0,2708.0,2705.0,2711.0,2709.0,2710.0,2710.0,2708.0,2706.0,2710.0,2709.0,2709.0,2710.0,2708.0,2716.0,2703.0,2709.0,2711.0,2706.0,2708.0,2710.0,2712.0,2711.0,2710.0,2710.0,2717.0,2713.0,2713.0,2711.0,2713.0,2710.0,2713.0,2714.0,2714.0,2721.0,2722.0,2720.0,2720.0,2722.0,2723.0,2724.0,2720.0,2723.0,2725.0,2723.0,2726.0,2727.0,2730.0,2732.0,2730.0,2733.0,2735.0,2737.0,2739.0,2743.0,2744.0,2743.0,2747.0,2755.0,2753.0,2758.0,2757.0,2758.0,2769.0,2777.0,2775.0,2772.0,2776.0,2773.0,2780.0,2782.0,2792.0,2788.0,2790.0,2798.0,2801.0,2808.0,2816.0,2819.0,2824.0,2831.0,2835.0,2842.0,2851.0,2859.0,2864.0","0","even","NA","NA","NA","arithmetic","84374","152010","NA","80363","157011","NA","79942","NA","NA","1664","150506","NA","152011","NA","1761","NA","NA","NA","157315","NA","148852","NA","157012","NA","150154","NA","147984","NA","80363","3094","NA","NA","NA","NA","79942","148852","NA","Extended template","0","0","0","yes","1024"
"undefined","undefined","undefined","undefined","black","yes","xpyriment","legacy","legacy","0","uniform","undefined","undefined","0","7","NA","0","7","NA","0","0","0","0","7","NA","7","NA","0","0","NA","NA","7","NA","7","NA","7","NA","7","NA","7","NA","0","0","0","0","NA","NA","0","7","NA","10/18/18 13:30:07","A template containing a practice and an experimental phase","easy","yes","Experiment.osexp","C:\Users\EEGExp\Desktop","no","mono","no","18","no","white","no","Ok","yes","768","legacy","7","7","0","C:/Users/EEGExp/Desktop/subject-0.csv","xpyriment","Kafkaesque Koffka","3.2.5","yes","[ 3185.  3184.  3183.  3177.  3185.  3179.  3179.  3175.  3173.  3167.
  3166.  3163.  3161.  3152.  3143.  3147.  3148.  3137.  3137.  3139.
  3132.  3132.  3133.  3129.  3123.  3121.  3122.  3125.  3123.  3123.
  3114.  3116.  3119.  3118.  3115.  3108.  3107.  3103.  3099.  3098.
  3091.  3081.  3077.  3071.  3062.  3058.  3057.  3047.  3040.  3033.
  3026.  3022.  3011.  3002.  2990.  2984.  2981.  2969.  2961.  2955.
  2947.  2936.  2926.  2918.  2917.  2907.  2900.  2899.  2888.  2885.
  2878.  2874.  2869.  2864.  2859.  2856.  2857.  2852.  2847.  2850.
  2850.  2854.  2854.  2852.  2845.  2849.  2850.  2848.  2849.  2851.
  2852.  2861.  2861.  2860.  2862.  2863.  2871.  2872.  2867.  2868.
  2909.  2460.  1006.  1633.  2042.  2402.  2572.  2833.  2933.  2907.
  2867.  2870.  2866.  2859.  2835.  2834.  2831.  2832.  2829.  2829.
  2828.  2825.  2823.  2820.  2818.  2819.  2814.  2811.  2807.  2801.
  2798.  2791.  2787.  2789.  2786.  2776.  2770.  2768.  2758.  2752.
  2744.  2744.  2738.  2728.  2721.  2719.  2707.  2704.  2698.  2701.
  2691.  2689.  2689.  2686.  2684.  2682.  2679.  2678.  2676.  2676.
  2678.  2674.  2673.  2674.  2674.  2674.  2674.  2674.  2673.  2676.
  2677.  2680.  2677.  2677.  2676.  2676.  2670.  2672.  2668.  2664.
  2665.  2662.  2655.  2652.  2650.  2647.  2640.  2634.  2633.  2630.
  2630.  2628.  2624.  2621.  2625.  2621.  2621.  2619.  2624.  2621.
  2622.  2623.  2625.  2623.  2625.  2624.  2625.  2629.  2633.  2634.
  2639.  2642.  2645.  2647.  2650.  2655.  2664.  2661.  2669.  2670.
  2678.  2688.  2693.  2694.  2695.  2707.  2709.  2717.  2722.  2731.
  2740.  2748.  2751.  2763.  2770.  2776.  2784.  2793.  2794.  2801.
  2816.  2817.  2820.  2822.  2827.  2832.  2830.  2830.  2837.  2836.
  2840.  2836.  2842.  2839.  2851.  2849.  2846.  2845.  2848.  2846.
  2847.  2842.  2839.  2835.  2836.  2834.  2833.  2829.  2834.  2832.
  2830.  2829.  2834.  2832.  2838.  2836.  2831.  2835.  2836.  2837.
  2839.  2839.  2842.  2841.  2845.  2852.  2852.  2854.  2858.  2863.
  2862.  2865.  2871.  2879.  2879.  2882.  2883.  2887.  2892.  2891.
  2893.  2894.  2899.  2898.  2902.  2906.  2908.  2912.  2909.  2912.
  2917.  2917.  2913.  2917.  2920.  2924.  2920.  2921.  2927.  2924.
  2927.  2928.  2931.  2930.  2926.  2927.  2930.  2930.  2940.  2936.
  2933.  2931.  2925.  2927.  2932.  2924.  2932.  2923.  2929.  2928.
  2928.  2926.  2927.  2933.  2933.  2933.  2931.  2931.  2933.  2934.
  2933.  2930.  2921.  2949.  2805.  2203.  2341.  2343.  2344.  2342.
  2345.  2343.  2340.  2348.  2348.  2352.  2352.  2351.  2350.  2350.
  2351.  2350.  2348.  2351.  2354.  2352.  2353.  2350.  2349.  2347.
  2346.  2347.  2346.  2345.  2342.  2340.  2339.  2337.  2331.  2330.
  2322.  2322.  2320.  2317.  2311.  2304.  2303.  2297.  2289.  2289.
  2277.  2276.]","3 + 7","0","c","NA","NA","c","1332","NA","NA","1332","LinregressResult(slope=-1.0815664811897148, intercept=2998.6122628751505, rvalue=-0.5096090969286019, pvalue=5.9122972821730779e-28, stderr=0.091303937459060736)","2","legacy","-1.08156648119","1024","2","48000","-16","experiment","3185.0,3184.0,3183.0,3177.0,3185.0,3179.0,3179.0,3175.0,3173.0,3167.0,3166.0,3163.0,3161.0,3152.0,3143.0,3147.0,3148.0,3137.0,3137.0,3139.0,3132.0,3132.0,3133.0,3129.0,3123.0,3121.0,3122.0,3125.0,3123.0,3123.0,3114.0,3116.0,3119.0,3118.0,3115.0,3108.0,3107.0,3103.0,3099.0,3098.0,3091.0,3081.0,3077.0,3071.0,3062.0,3058.0,3057.0,3047.0,3040.0,3033.0,3026.0,3022.0,3011.0,3002.0,2990.0,2984.0,2981.0,2969.0,2961.0,2955.0,2947.0,2936.0,2926.0,2918.0,2917.0,2907.0,2900.0,2899.0,2888.0,2885.0,2878.0,2874.0,2869.0,2864.0,2859.0,2856.0,2857.0,2852.0,2847.0,2850.0,2850.0,2854.0,2854.0,2852.0,2845.0,2849.0,2850.0,2848.0,2849.0,2851.0,2852.0,2861.0,2861.0,2860.0,2862.0,2863.0,2871.0,2872.0,2867.0,2868.0,2909.0,2460.0,0.0,0.0,0.0,0.0,0.0,0.0,0.0,0.0,0.0,0.0,0.0,0.0,1006.0,1633.0,2042.0,2402.0,2572.0,2833.0,2933.0,2907.0,2867.0,2870.0,2866.0,2859.0,2835.0,2834.0,2831.0,2832.0,2829.0,2829.0,2828.0,2825.0,2823.0,2820.0,2818.0,2819.0,2814.0,2811.0,2807.0,2801.0,2798.0,2791.0,2787.0,2789.0,2786.0,2776.0,2770.0,2768.0,2758.0,2752.0,2744.0,2744.0,2738.0,2728.0,2721.0,2719.0,2707.0,2704.0,2698.0,2701.0,2691.0,2689.0,2689.0,2686.0,2684.0,2682.0,2679.0,2678.0,2676.0,2676.0,2678.0,2674.0,2673.0,2674.0,2674.0,2674.0,2674.0,2674.0,2673.0,2676.0,2677.0,2680.0,2677.0,2677.0,2676.0,2676.0,2670.0,2672.0,2668.0,2664.0,2665.0,2662.0,2655.0,2652.0,2650.0,2647.0,2640.0,2634.0,2633.0,2630.0,2630.0,2628.0,2624.0,2621.0,2625.0,2621.0,2621.0,2619.0,2624.0,2621.0,2622.0,2623.0,2625.0,2623.0,2625.0,2624.0,2625.0,2629.0,2633.0,2634.0,2639.0,2642.0,2645.0,2647.0,2650.0,2655.0,2664.0,2661.0,2669.0,2670.0,2678.0,2688.0,2693.0,2694.0,2695.0,2707.0,2709.0,2717.0,2722.0,2731.0,2740.0,2748.0,2751.0,2763.0,2770.0,2776.0,2784.0,2793.0,2794.0,2801.0,2816.0,2817.0,2820.0,2822.0,2827.0,2832.0,2830.0,2830.0,2837.0,2836.0,2840.0,2836.0,2842.0,2839.0,2851.0,2849.0,2846.0,2845.0,2848.0,2846.0,2847.0,2842.0,2839.0,2835.0,2836.0,2834.0,2833.0,2829.0,2834.0,2832.0,2830.0,2829.0,2834.0,2832.0,2838.0,2836.0,2831.0,2835.0,2836.0,2837.0,2839.0,2839.0,2842.0,2841.0,2845.0,2852.0,2852.0,2854.0,2858.0,2863.0,2862.0,2865.0,2871.0,2879.0,2879.0,2882.0,2883.0,2887.0,2892.0,2891.0,2893.0,2894.0,2899.0,2898.0,2902.0,2906.0,2908.0,2912.0,2909.0,2912.0,2917.0,2917.0,2913.0,2917.0,2920.0,2924.0,2920.0,2921.0,2927.0,2924.0,2927.0,2928.0,2931.0,2930.0,2926.0,2927.0,2930.0,2930.0,2940.0,2936.0,2933.0,2931.0,2925.0,2927.0,2932.0,2924.0,2932.0,2923.0,2929.0,2928.0,2928.0,2926.0,2927.0,2933.0,2933.0,2933.0,2931.0,2931.0,2933.0,2934.0,2933.0,2930.0,2921.0,2949.0,2805.0,2203.0,0.0,0.0,0.0,0.0,0.0,0.0,0.0,0.0,0.0,0.0,0.0,0.0,0.0,0.0,0.0,0.0,0.0,0.0,0.0,0.0,0.0,0.0,0.0,0.0,0.0,0.0,0.0,0.0,0.0,0.0,0.0,0.0,0.0,0.0,0.0,0.0,0.0,0.0,0.0,0.0,0.0,0.0,0.0,0.0,0.0,0.0,0.0,0.0,0.0,0.0,0.0,0.0,0.0,0.0,0.0,0.0,0.0,0.0,0.0,0.0,0.0,0.0,0.0,0.0,0.0,0.0,0.0,0.0,0.0,0.0,0.0,0.0,0.0,0.0,0.0,0.0,0.0,0.0,0.0,0.0,0.0,0.0,0.0,0.0,0.0,0.0,2341.0,2343.0,2344.0,2342.0,2345.0,2343.0,2340.0,2348.0,2348.0,2352.0,2352.0,2351.0,2350.0,2350.0,2351.0,2350.0,2348.0,2351.0,2354.0,2352.0,2353.0,2350.0,2349.0,2347.0,2346.0,2347.0,2346.0,2345.0,2342.0,2340.0,2339.0,2337.0,2331.0,2330.0,2322.0,2322.0,2320.0,2317.0,2311.0,2304.0,2303.0,2297.0,2289.0,2289.0,2277.0,2276.0","0","even","NA","NA","NA","arithmetic","84374","161069","NA","80363","166071","NA","79942","NA","NA","1664","159564","NA","161071","NA","1761","NA","NA","NA","166374","NA","158209","NA","166072","NA","159210","NA","157333","NA","80363","3094","NA","NA","NA","NA","79942","158209","NA","Extended template","0","0","0","yes","1024"
"undefined","undefined","undefined","undefined","black","yes","xpyriment","legacy","legacy","0","uniform","undefined","undefined","0","8","NA","0","8","NA","0","0","0","0","8","NA","8","NA","0","0","NA","NA","8","NA","8","NA","8","NA","8","NA","8","NA","0","0","0","0","NA","NA","0","8","NA","10/18/18 13:30:07","A template containing a practice and an experimental phase","hard","yes","Experiment.osexp","C:\Users\EEGExp\Desktop","no","mono","no","18","no","white","no","Ok","yes","768","legacy","8","8","0","C:/Users/EEGExp/Desktop/subject-0.csv","xpyriment","Kafkaesque Koffka","3.2.5","yes","[ 2371.  2371.  2370.  2377.  2376.  2380.  2376.  2382.  2383.  2384.
  2384.  2383.  2383.  2383.  2382.  2385.  2381.  2383.  2383.  2384.
  2383.  2382.  2380.  2382.  2382.  2381.  2379.  2376.  2377.  2378.
  2384.  2377.  2377.  2376.  2377.  2382.  2379.  2378.  2379.  2378.
  2378.  2376.  2380.  2377.  2376.  2374.  2375.  2371.  2374.  2375.
  2374.  2370.  2369.  2370.  2369.  2367.  2369.  2371.  2366.  2365.
  2365.  2364.  2362.  2362.  2356.  2356.  2356.  2356.  2350.  2350.
  2346.  2347.  2348.  2347.  2344.  2344.  2344.  2345.  2343.  2348.
  2348.  2348.  2349.  2349.  2351.  2352.  2356.  2358.  2362.  2373.
  2372.  2376.  2382.  2392.  2395.  2397.  2401.  2403.  2408.  2413.
  2421.  2425.  2427.  2434.  2440.  2443.  2451.  2454.  2460.  2465.
  2469.  2478.  2480.  2487.  2490.  2495.  2499.  2503.  2521.  2524.
  2523.  2516.  2520.  2524.  2524.  2528.  2541.  2567.  2560.  2560.
  2565.  2565.  2567.  2564.  2567.  2569.  2572.  2570.  2577.  2580.
  2574.  2570.  2573.  2572.  2570.  2567.  2568.  2569.  2557.  2560.
  2557.  2556.  2549.  2549.  2540.  2539.  2536.  2534.  2529.  2534.
  2530.  2529.  2524.  2526.  2539.  2054.   353.   990.  1659.  2068.
  2330.  2618.  2630.  2593.  2607.  2616.  2610.  2575.  2573.  2571.
  2570.  2568.  2568.  2568.  2566.  2559.  2560.  2546.  2542.  2534.
  2526.  2517.  2511.  2502.  2497.  2483.  2478.  2465.  2460.  2455.
  2448.  2440.  2433.  2423.  2419.  2411.  2403.  2400.  2391.  2386.
  2379.  2370.  2370.  2360.  2359.  2354.  2350.  2348.  2344.  2341.
  2337.  2333.  2330.  2331.  2336.  2329.  2321.  2315.  2312.  2309.
  2307.  2306.  2306.  2305.  2305.  2302.  2298.  2298.  2298.  2299.
  2300.  2301.  2303.  2304.  2304.  2308.  2308.  2307.  2311.  2313.
  2316.  2318.  2319.  2323.  2327.  2331.  2333.  2331.  2334.  2336.
  2338.  2343.  2347.  2350.  2351.  2353.  2358.  2369.  2376.  2381.
  2387.  2390.  2394.  2398.  2399.  2403.  2411.  2415.  2420.  2424.
  2434.  2429.  2437.  2446.  2447.  2451.  2455.  2460.  2465.  2467.
  2472.  2478.  2473.  2477.  2482.  2486.  2490.  2491.  2491.  2529.
  2527.  1910.   922.   292.  1096.  1886.  2281.  2551.  2645.  2621.
  2635.  2644.  2599.  2597.  2599.  2600.  2598.  2592.  2591.  2586.
  2581.  2575.  2566.  2558.  2547.  2541.  2539.  2525.  2521.  2517.
  2510.  2498.  2490.  2482.  2480.  2470.  2466.  2465.  2460.  2456.
  2452.  2445.  2440.  2440.  2435.  2431.  2428.  2422.  2414.  2418.
  2419.  2412.  2413.  2411.  2413.  2408.  2408.  2409.  2409.  2408.
  2407.  2412.  2411.  2410.  2411.  2415.  2415.  2413.  2415.  2416.
  2418.  2419.  2420.  2418.  2417.  2417.  2414.  2415.  2413.  2412.
  2411.  2410.  2410.  2407.  2405.  2403.  2399.  2403.  2404.  2403.
  2403.  2403.  2401.  2407.  2411.  2413.  2412.  2416.  2419.  2420.
  2425.  2428.  2432.  2435.  2443.  2449.  2454.  2464.  2468.  2471.
  2478.  2488.  2496.  2505.  2510.  2516.  2525.  2537.  2545.  2556.
  2566.  2578.  2580.  2589.  2604.  2612.  2621.  2631.  2642.  2654.
  2663.  2672.  2687.  2700.  2703.  2713.  2723.  2733.  2741.  2749.
  2766.  2771.  2777.  2776.  2783.  2791.  2791.  2798.  2808.  2814.
  2816.  2824.  2826.  2834.  2833.  2833.  2835.  2839.  2838.  2840.
  2845.  2852.  2859.  2857.  2858.  2857.  2863.  2865.  2869.  2868.]","3x - 8 = 7","0","c","NA","NA","c","1332","NA","NA","1332","LinregressResult(slope=0.47717515649059983, intercept=2333.2082293698681, rvalue=0.27986494417346652, pvalue=6.6167397295840904e-10, stderr=0.075665071024691014)","2","legacy","0.477175156491","1024","2","48000","-16","experiment","2371.0,2371.0,2370.0,2377.0,2376.0,2380.0,2376.0,2382.0,2383.0,2384.0,2384.0,2383.0,2383.0,2383.0,2382.0,2385.0,2381.0,2383.0,2383.0,2384.0,2383.0,2382.0,2380.0,2382.0,2382.0,2381.0,2379.0,2376.0,2377.0,2378.0,2384.0,2377.0,2377.0,2376.0,2377.0,2382.0,2379.0,2378.0,2379.0,2378.0,2378.0,2376.0,2380.0,2377.0,2376.0,2374.0,2375.0,2371.0,2374.0,2375.0,2374.0,2370.0,2369.0,2370.0,2369.0,2367.0,2369.0,2371.0,2366.0,2365.0,2365.0,2364.0,2362.0,2362.0,2356.0,2356.0,2356.0,2356.0,2350.0,2350.0,2346.0,2347.0,2348.0,2347.0,2344.0,2344.0,2344.0,2345.0,2343.0,2348.0,2348.0,2348.0,2349.0,2349.0,2351.0,2352.0,2356.0,2358.0,2362.0,2373.0,2372.0,2376.0,2382.0,2392.0,2395.0,2397.0,2401.0,2403.0,2408.0,2413.0,2421.0,2425.0,2427.0,2434.0,2440.0,2443.0,2451.0,2454.0,2460.0,2465.0,2469.0,2478.0,2480.0,2487.0,2490.0,2495.0,2499.0,2503.0,2521.0,2524.0,2523.0,2516.0,2520.0,2524.0,2524.0,2528.0,2541.0,2567.0,2560.0,2560.0,2565.0,2565.0,2567.0,2564.0,2567.0,2569.0,2572.0,2570.0,2577.0,2580.0,2574.0,2570.0,2573.0,2572.0,2570.0,2567.0,2568.0,2569.0,2557.0,2560.0,2557.0,2556.0,2549.0,2549.0,2540.0,2539.0,2536.0,2534.0,2529.0,2534.0,2530.0,2529.0,2524.0,2526.0,2539.0,2054.0,0.0,0.0,0.0,0.0,0.0,0.0,0.0,0.0,0.0,0.0,0.0,0.0,353.0,0.0,990.0,1659.0,2068.0,2330.0,2618.0,2630.0,2593.0,2607.0,2616.0,2610.0,2575.0,2573.0,2571.0,2570.0,2568.0,2568.0,2568.0,2566.0,2559.0,2560.0,2546.0,2542.0,2534.0,2526.0,2517.0,2511.0,2502.0,2497.0,2483.0,2478.0,2465.0,2460.0,2455.0,2448.0,2440.0,2433.0,2423.0,2419.0,2411.0,2403.0,2400.0,2391.0,2386.0,2379.0,2370.0,2370.0,2360.0,2359.0,2354.0,2350.0,2348.0,2344.0,2341.0,2337.0,2333.0,2330.0,2331.0,2336.0,2329.0,2321.0,2315.0,2312.0,2309.0,2307.0,2306.0,2306.0,2305.0,2305.0,2302.0,2298.0,2298.0,2298.0,2299.0,2300.0,2301.0,2303.0,2304.0,2304.0,2308.0,2308.0,2307.0,2311.0,2313.0,2316.0,2318.0,2319.0,2323.0,2327.0,2331.0,2333.0,2331.0,2334.0,2336.0,2338.0,2343.0,2347.0,2350.0,2351.0,2353.0,2358.0,2369.0,2376.0,2381.0,2387.0,2390.0,2394.0,2398.0,2399.0,2403.0,2411.0,2415.0,2420.0,2424.0,2434.0,2429.0,2437.0,2446.0,2447.0,2451.0,2455.0,2460.0,2465.0,2467.0,2472.0,2478.0,2473.0,2477.0,2482.0,2486.0,2490.0,2491.0,2491.0,2529.0,2527.0,1910.0,922.0,0.0,0.0,0.0,0.0,0.0,0.0,0.0,0.0,0.0,0.0,0.0,0.0,0.0,0.0,0.0,0.0,292.0,0.0,1096.0,1886.0,2281.0,2551.0,2645.0,2621.0,2635.0,2644.0,2599.0,2597.0,2599.0,2600.0,2598.0,2592.0,2591.0,2586.0,2581.0,2575.0,2566.0,2558.0,2547.0,2541.0,2539.0,2525.0,2521.0,2517.0,2510.0,2498.0,2490.0,2482.0,2480.0,2470.0,2466.0,2465.0,2460.0,2456.0,2452.0,2445.0,2440.0,2440.0,2435.0,2431.0,2428.0,2422.0,2414.0,2418.0,2419.0,2412.0,2413.0,2411.0,2413.0,2408.0,2408.0,2409.0,2409.0,2408.0,2407.0,2412.0,2411.0,2410.0,2411.0,2415.0,2415.0,2413.0,2415.0,2416.0,2418.0,2419.0,2420.0,2418.0,2417.0,2417.0,2414.0,2415.0,2413.0,2412.0,2411.0,2410.0,2410.0,2407.0,2405.0,2403.0,2399.0,2403.0,2404.0,2403.0,2403.0,2403.0,2401.0,2407.0,2411.0,2413.0,2412.0,2416.0,2419.0,2420.0,2425.0,2428.0,2432.0,2435.0,2443.0,2449.0,2454.0,2464.0,2468.0,2471.0,2478.0,2488.0,2496.0,2505.0,2510.0,2516.0,2525.0,2537.0,2545.0,2556.0,2566.0,2578.0,2580.0,2589.0,2604.0,2612.0,2621.0,2631.0,2642.0,2654.0,2663.0,2672.0,2687.0,2700.0,2703.0,2713.0,2723.0,2733.0,2741.0,2749.0,2766.0,2771.0,2777.0,2776.0,2783.0,2791.0,2791.0,2798.0,2808.0,2814.0,2816.0,2824.0,2826.0,2834.0,2833.0,2833.0,2835.0,2839.0,2838.0,2840.0,2845.0,2852.0,2859.0,2857.0,2858.0,2857.0,2863.0,2865.0,2869.0,2868.0","0","even","NA","NA","NA","arithmetic","84374","171466","NA","80363","176468","NA","79942","NA","NA","1664","169963","NA","171468","NA","1761","NA","NA","NA","176772","NA","167260","NA","176469","NA","169610","NA","166390","NA","80363","3094","NA","NA","NA","NA","79942","167259","NA","Extended template","0","0","0","yes","1024"
"undefined","undefined","undefined","undefined","black","yes","xpyriment","legacy","legacy","0","uniform","undefined","undefined","0","9","NA","0","9","NA","0","0","0","0","9","NA","9","NA","0","0","NA","NA","9","NA","9","NA","9","NA","9","NA","9","NA","0","0","0","0","NA","NA","0","9","NA","10/18/18 13:30:07","A template containing a practice and an experimental phase","hard","yes","Experiment.osexp","C:\Users\EEGExp\Desktop","no","mono","no","18","no","white","no","Ok","yes","768","legacy","9","9","0","C:/Users/EEGExp/Desktop/subject-0.csv","xpyriment","Kafkaesque Koffka","3.2.5","yes","[ 2795.  2795.  2793.  2793.  2786.  2779.  2776.  2767.  2759.  2759.
  2746.  2746.  2739.  2732.  2725.  2722.  2716.  2713.  2712.  2709.
  2710.  2705.  2703.  2705.  2709.  2709.  2709.  2709.  2714.  2713.
  2717.  2724.  2725.  2731.  2733.  2737.  2747.  2746.  2752.  2753.
  2759.  2760.  2764.  2765.  2770.  2778.  2780.  2785.  2786.  2791.
  2799.  2803.  2807.  2809.  2813.  2816.  2821.  2826.  2829.  2833.
  2835.  2833.  2848.  2843.  2846.  2846.  2848.  2852.  2860.  2860.
  2867.  2871.  2872.  2878.  2879.  2880.  2906.  2671.  1056.   412.
   969.  1262.  2021.  2443.  2658.  2919.  2932.  2893.  2867.  2861.
  2855.  2815.  2810.  2807.  2801.  2793.  2790.  2788.  2788.  2789.
  2788.  2786.  2787.  2783.  2780.  2774.  2774.  2775.  2776.  2775.
  2774.  2777.  2771.  2771.  2769.  2770.  2771.  2771.  2771.  2769.
  2769.  2770.  2772.  2772.  2770.  2771.  2778.  2776.  2779.  2780.
  2785.  2785.  2782.  2788.  2790.  2792.  2796.  2804.  2804.  2804.
  2806.  2814.  2810.  2816.  2813.  2817.  2815.  2815.  2810.  2807.
  2807.  2801.  2797.  2791.  2789.  2783.  2805.  2781.  2783.  2780.
  2772.  2762.  2757.  2750.  2741.  2739.  2729.  2723.  2719.  2708.
  2711.  2701.  2695.  2692.  2688.  2682.  2681.  2677.  2673.  2667.
  2664.  2667.  2668.  2665.  2659.  2660.  2663.  2659.  2657.  2656.
  2654.  2658.  2657.  2657.  2658.  2657.  2652.  2654.  2655.  2655.
  2657.  2659.  2662.  2661.  2661.  2665.  2663.  2663.  2665.  2667.
  2672.  2668.  2667.  2667.  2667.  2669.  2668.  2669.  2665.  2665.
  2672.  2665.  2666.  2667.  2669.  2671.  2670.  2675.  2678.  2681.
  2681.  2682.  2685.  2694.  2694.  2700.  2704.  2710.  2712.  2713.
  2719.  2725.  2725.  2729.  2734.  2734.  2739.  2738.  2743.  2747.
  2749.  2750.  2758.  2766.  2778.  2768.  2776.  2778.  2784.  2784.
  2786.  2797.  2799.  2803.  2805.  2812.  2815.  2824.  2827.  2833.
  2837.  2847.  2848.  2854.  2857.  2856.  2860.  2862.  2864.  2868.
  2871.  2870.  2867.  2879.  2881.  2883.  2873.  2876.  2896.  1904.
  1049.  1325.  2118.  2432.  2656.  2866.  2950.  2946.  2908.  2906.
  2912.  2907.  2884.  2859.  2854.  2841.  2838.  2828.  2817.  2810.
  2791.  2778.  2773.  2761.  2747.  2739.  2729.  2725.  2715.  2711.
  2707.  2700.  2693.  2691.  2690.  2682.  2683.  2685.  2683.  2679.
  2681.  2678.  2682.  2673.  2680.  2676.  2675.  2677.  2678.  2676.
  2676.  2676.  2676.  2677.  2685.  2677.  2674.  2681.  2680.  2683.
  2685.  2683.  2676.  2674.  2675.  2673.  2670.  2671.  2667.  2667.
  2662.  2663.  2663.  2659.  2657.  2659.  2648.  2648.  2643.  2636.
  2634.  2630.  2625.  2617.  2615.  2612.  2608.  2607.  2602.  2603.
  2601.  2596.  2595.  2597.  2597.  2595.  2590.  2591.  2591.  2590.
  2593.  2587.  2589.  2586.  2588.  2587.  2584.  2586.  2582.  2582.
  2579.  2580.  2576.  2576.  2573.  2573.  2574.  2574.  2578.  2576.
  2576.  2573.  2569.  2568.  2565.  2565.  2569.  2565.  2565.  2565.
  2564.  2559.  2558.  2558.  2554.  2553.  2557.  2555.  2557.  2556.
  2554.  2553.  2555.  2558.  2557.  2557.  2560.  2561.  2565.  2565.
  2567.  2571.  2576.  2583.  2583.  2581.  2587.  2596.  2598.  2604.
  2610.  2621.  2626.  2633.  2640.  2647.  2651.  2659.  2667.  2678.
  2688.  2702.  2701.  2714.  2722.  2736.  2738.  2746.  2759.  2770.
  2769.  2777.  2780.]","4x - 2 = 10","0","c","NA","NA","c","1332","NA","NA","1332","LinregressResult(slope=-0.27009171057758302, intercept=2756.4049700791916, rvalue=-0.16626726508450884, pvalue=0.00028143334812076755, stderr=0.073808523644176144)","2","legacy","-0.270091710578","1024","2","48000","-16","experiment","2795.0,2795.0,2793.0,2793.0,2786.0,2779.0,2776.0,2767.0,2759.0,2759.0,2746.0,2746.0,2739.0,2732.0,2725.0,2722.0,2716.0,2713.0,2712.0,2709.0,2710.0,2705.0,2703.0,2705.0,2709.0,2709.0,2709.0,2709.0,2714.0,2713.0,2717.0,2724.0,2725.0,2731.0,2733.0,2737.0,2747.0,2746.0,2752.0,2753.0,2759.0,2760.0,2764.0,2765.0,2770.0,2778.0,2780.0,2785.0,2786.0,2791.0,2799.0,2803.0,2807.0,2809.0,2813.0,2816.0,2821.0,2826.0,2829.0,2833.0,2835.0,2833.0,2848.0,2843.0,2846.0,2846.0,2848.0,2852.0,2860.0,2860.0,2867.0,2871.0,2872.0,2878.0,2879.0,2880.0,2906.0,2671.0,1056.0,0.0,0.0,0.0,0.0,0.0,0.0,0.0,0.0,412.0,969.0,1262.0,2021.0,2443.0,2658.0,2919.0,2932.0,2893.0,2867.0,2861.0,2855.0,2815.0,2810.0,2807.0,2801.0,2793.0,2790.0,2788.0,2788.0,2789.0,2788.0,2786.0,2787.0,2783.0,2780.0,2774.0,2774.0,2775.0,2776.0,2775.0,2774.0,2777.0,2771.0,2771.0,2769.0,2770.0,2771.0,2771.0,2771.0,2769.0,2769.0,2770.0,2772.0,2772.0,2770.0,2771.0,2778.0,2776.0,2779.0,2780.0,2785.0,2785.0,2782.0,2788.0,2790.0,2792.0,2796.0,2804.0,2804.0,2804.0,2806.0,2814.0,2810.0,2816.0,2813.0,2817.0,2815.0,2815.0,2810.0,2807.0,2807.0,2801.0,2797.0,2791.0,2789.0,2783.0,2805.0,2781.0,2783.0,2780.0,2772.0,2762.0,2757.0,2750.0,2741.0,2739.0,2729.0,2723.0,2719.0,2708.0,2711.0,2701.0,2695.0,2692.0,2688.0,2682.0,2681.0,2677.0,2673.0,2667.0,2664.0,2667.0,2668.0,2665.0,2659.0,2660.0,2663.0,2659.0,2657.0,2656.0,2654.0,2658.0,2657.0,2657.0,2658.0,2657.0,2652.0,2654.0,2655.0,2655.0,2657.0,2659.0,2662.0,2661.0,2661.0,2665.0,2663.0,2663.0,2665.0,2667.0,2672.0,2668.0,2667.0,2667.0,2667.0,2669.0,2668.0,2669.0,2665.0,2665.0,2672.0,2665.0,2666.0,2667.0,2669.0,2671.0,2670.0,2675.0,2678.0,2681.0,2681.0,2682.0,2685.0,2694.0,2694.0,2700.0,2704.0,2710.0,2712.0,2713.0,2719.0,2725.0,2725.0,2729.0,2734.0,2734.0,2739.0,2738.0,2743.0,2747.0,2749.0,2750.0,2758.0,2766.0,2778.0,2768.0,2776.0,2778.0,2784.0,2784.0,2786.0,2797.0,2799.0,2803.0,2805.0,2812.0,2815.0,2824.0,2827.0,2833.0,2837.0,2847.0,2848.0,2854.0,2857.0,2856.0,2860.0,2862.0,2864.0,2868.0,2871.0,2870.0,2867.0,2879.0,2881.0,2883.0,2873.0,2876.0,2896.0,1904.0,0.0,0.0,0.0,0.0,0.0,0.0,0.0,0.0,0.0,0.0,0.0,0.0,0.0,0.0,0.0,0.0,0.0,0.0,0.0,1049.0,1325.0,2118.0,2432.0,2656.0,2866.0,2950.0,2946.0,2908.0,2906.0,2912.0,2907.0,2884.0,2859.0,2854.0,2841.0,2838.0,2828.0,2817.0,2810.0,2791.0,2778.0,2773.0,2761.0,2747.0,2739.0,2729.0,2725.0,2715.0,2711.0,2707.0,2700.0,2693.0,2691.0,2690.0,2682.0,2683.0,2685.0,2683.0,2679.0,2681.0,2678.0,2682.0,2673.0,2680.0,2676.0,2675.0,2677.0,2678.0,2676.0,2676.0,2676.0,2676.0,2677.0,2685.0,2677.0,2674.0,2681.0,2680.0,2683.0,2685.0,2683.0,2676.0,2674.0,2675.0,2673.0,2670.0,2671.0,2667.0,2667.0,2662.0,2663.0,2663.0,2659.0,2657.0,2659.0,2648.0,2648.0,2643.0,2636.0,2634.0,2630.0,2625.0,2617.0,2615.0,2612.0,2608.0,2607.0,2602.0,2603.0,2601.0,2596.0,2595.0,2597.0,2597.0,2595.0,2590.0,2591.0,2591.0,2590.0,2593.0,2587.0,2589.0,2586.0,2588.0,2587.0,2584.0,2586.0,2582.0,2582.0,2579.0,2580.0,2576.0,2576.0,2573.0,2573.0,2574.0,2574.0,2578.0,2576.0,2576.0,2573.0,2569.0,2568.0,2565.0,2565.0,2569.0,2565.0,2565.0,2565.0,2564.0,2559.0,2558.0,2558.0,2554.0,2553.0,2557.0,2555.0,2557.0,2556.0,2554.0,2553.0,2555.0,2558.0,2557.0,2557.0,2560.0,2561.0,2565.0,2565.0,2567.0,2571.0,2576.0,2583.0,2583.0,2581.0,2587.0,2596.0,2598.0,2604.0,2610.0,2621.0,2626.0,2633.0,2640.0,2647.0,2651.0,2659.0,2667.0,2678.0,2688.0,2702.0,2701.0,2714.0,2722.0,2736.0,2738.0,2746.0,2759.0,2770.0,2769.0,2777.0,2780.0","0","even","NA","NA","NA","arithmetic","84374","182226","NA","80363","187227","NA","79942","NA","NA","1664","180722","NA","182227","NA","1761","NA","NA","NA","187531","NA","177659","NA","187228","NA","180370","NA","176788","NA","80363","3094","NA","NA","NA","NA","79942","177658","NA","Extended template","0","0","0","yes","1024"
"undefined","undefined","undefined","undefined","black","yes","xpyriment","legacy","legacy","0","uniform","undefined","undefined","0","10","NA","0","10","NA","0","0","0","0","10","NA","10","NA","0","0","NA","NA","10","NA","10","NA","10","NA","10","NA","10","NA","0","0","0","0","NA","NA","0","10","NA","10/18/18 13:30:07","A template containing a practice and an experimental phase","easy","yes","Experiment.osexp","C:\Users\EEGExp\Desktop","no","mono","no","18","no","white","no","Ok","yes","768","legacy","10","10","0","C:/Users/EEGExp/Desktop/subject-0.csv","xpyriment","Kafkaesque Koffka","3.2.5","yes","[ 3070.  3059.  3051.  3049.  3054.  3061.  3060.  3067.  3077.  3076.
  3081.  3078.  3071.  3074.  3067.  3069.  3057.  3052.  3052.  3036.
  3035.  3026.  3025.  3020.  3011.  3006.  3005.  3002.  2993.  2994.
  2990.  2989.  2988.  2983.  2980.  2975.  2970.  2973.  2965.  2963.
  2965.  2961.  2960.  2964.  2964.  2964.  2963.  2960.  2959.  2960.
  2958.  2953.  2950.  2945.  2942.  2942.  2940.  2940.  2938.  2934.
  2932.  2925.  2923.  2922.  2914.  2900.  2900.  2898.  2891.  2886.
  2886.  2876.  2873.  2865.  2866.  2855.  2859.  2858.  2855.  2853.
  2854.  2855.  2855.  2859.  2864.  2862.  2863.  2865.  2872.  2875.
  2878.  2893.  2896.  2898.  2908.  2913.  2915.  2919.  2929.  2935.
  2944.  2953.  2971.  2975.  2979.  2989.  2998.  3007.  3021.  3037.
  3040.  3051.  3057.  3073.  3086.  3092.  3100.  3105.  3115.  3125.
  3132.  3140.  3143.  3147.  3156.  3158.  3157.  3167.  3166.  3166.
  3157.  3162.  3166.  3162.  3161.  3156.  3150.  3152.  3146.  3143.
  3139.  3131.  3126.  3122.  3118.  3109.  3111.  3103.  3107.  3102.
  3098.  3101.  3100.  3097.  3093.  3086.  3087.  3085.  3086.  3085.
  3083.  3084.  3079.  3083.  3085.  3085.  3080.  3074.  3075.  3076.
  3077.  3075.  3078.  3079.  3076.  3072.  3070.  3067.  3058.  3061.
  3056.  3047.  3053.  3048.  3044.  3045.  3043.  3035.  3030.  3017.
  3051.  2932.  2171.  1057.  1043.  1764.  2269.  2683.  2941.  3108.
  3096.  3065.  3078.  3076.  3052.  3052.  3047.  3057.  3063.  3057.
  3062.  3062.  3059.  3056.  3045.  3038.  3026.  3018.  3008.  3001.
  2989.  2982.  2964.  2956.  2946.  2935.  2926.  2919.  2906.  2894.
  2886.  2875.  2866.  2852.  2851.  2841.  2833.  2821.  2815.  2806.
  2800.  2794.  2782.  2781.  2773.  2766.  2766.  2760.  2755.  2748.
  2745.  2740.  2740.  2735.  2735.  2735.  2732.  2738.  2737.  2734.
  2740.  2743.  2740.  2745.  2744.  2748.  2748.  2741.  2747.  2746.
  2751.  2749.  2752.  2752.  2751.  2750.  2748.  2748.  2745.  2747.
  2748.  2748.  2743.  2742.  2746.  2743.  2743.  2744.  2740.  2742.
  2737.  2739.  2738.  2742.  2741.  2742.  2742.  2742.  2747.  2743.
  2747.  2755.  2758.  2762.  2767.  2771.  2777.  2784.  2787.  2796.
  2800.  2808.  2813.  2830.  2840.  2843.  2855.  2862.  2877.  2880.
  2892.  2903.  2917.  2927.  2933.  2953.  2968.  2978.  2991.  3001.
  3008.  3020.  3031.  3038.  3056.  3065.  3078.  3088.  3099.  3113.
  3118.  3131.  3143.  3146.  3155.  3159.  3169.  3176.  3185.  3191.
  3192.  3199.  3202.  3203.  3203.  3208.  3210.  3208.  3208.  3207.
  3210.  3206.  3205.  3203.  3196.  3191.  3189.  3185.  3184.  3183.
  3180.  3176.  3172.  3165.  3164.  3154.  3152.  3145.  3142.  3134.
  3136.  3133.  3133.  3123.  3120.  3120.  3113.  3111.  3109.  3109.
  3104.  3100.  3100.  3102.  3102.  3101.  3100.  3102.  3100.  3100.
  3105.  3101.  3103.  3109.  3105.  3110.  3111.  3110.  3118.  3119.
  3119.  3122.  3122.  3123.  3122.  3118.  3125.  3125.  3124.  3127.
  3119.  3117.  3119.  3121.  3118.  3118.  3117.  3114.  3121.  3112.
  3108.  3111.  3107.  3108.  3107.  3108.  3107.  3108.  3107.  3115.
  3116.  3121.  3112.  3109.  3109.  3116.  3111.  3106.  3110.  3113.
  3111.  3112.  3111.  3111.  3106.  3113.  3129.  1076.  1293.  2072.
  2494.  2775.  2932.  3142.  3138.  3100.  3089.  3092.  3082.  3063.
  3042.]","1 + 8","0","c","NA","NA","c","1332","NA","NA","1332","LinregressResult(slope=0.095291838267552664, intercept=2951.3837376338256, rvalue=0.054139997072488191, pvalue=0.24091080793358985, stderr=0.081154691694043893)","2","legacy","0.0952918382676","1024","2","48000","-16","experiment","3070.0,3059.0,3051.0,3049.0,3054.0,3061.0,3060.0,3067.0,3077.0,3076.0,3081.0,3078.0,3071.0,3074.0,3067.0,3069.0,3057.0,3052.0,3052.0,3036.0,3035.0,3026.0,3025.0,3020.0,3011.0,3006.0,3005.0,3002.0,2993.0,2994.0,2990.0,2989.0,2988.0,2983.0,2980.0,2975.0,2970.0,2973.0,2965.0,2963.0,2965.0,2961.0,2960.0,2964.0,2964.0,2964.0,2963.0,2960.0,2959.0,2960.0,2958.0,2953.0,2950.0,2945.0,2942.0,2942.0,2940.0,2940.0,2938.0,2934.0,2932.0,2925.0,2923.0,2922.0,2914.0,2900.0,2900.0,2898.0,2891.0,2886.0,2886.0,2876.0,2873.0,2865.0,2866.0,2855.0,2859.0,2858.0,2855.0,2853.0,2854.0,2855.0,2855.0,2859.0,2864.0,2862.0,2863.0,2865.0,2872.0,2875.0,2878.0,2893.0,2896.0,2898.0,2908.0,2913.0,2915.0,2919.0,2929.0,2935.0,2944.0,2953.0,2971.0,2975.0,2979.0,2989.0,2998.0,3007.0,3021.0,3037.0,3040.0,3051.0,3057.0,3073.0,3086.0,3092.0,3100.0,3105.0,3115.0,3125.0,3132.0,3140.0,3143.0,3147.0,3156.0,3158.0,3157.0,3167.0,3166.0,3166.0,3157.0,3162.0,3166.0,3162.0,3161.0,3156.0,3150.0,3152.0,3146.0,3143.0,3139.0,3131.0,3126.0,3122.0,3118.0,3109.0,3111.0,3103.0,3107.0,3102.0,3098.0,3101.0,3100.0,3097.0,3093.0,3086.0,3087.0,3085.0,3086.0,3085.0,3083.0,3084.0,3079.0,3083.0,3085.0,3085.0,3080.0,3074.0,3075.0,3076.0,3077.0,3075.0,3078.0,3079.0,3076.0,3072.0,3070.0,3067.0,3058.0,3061.0,3056.0,3047.0,3053.0,3048.0,3044.0,3045.0,3043.0,3035.0,3030.0,3017.0,3051.0,2932.0,2171.0,1057.0,0.0,0.0,0.0,0.0,0.0,0.0,0.0,0.0,0.0,0.0,0.0,0.0,0.0,0.0,0.0,1043.0,1764.0,2269.0,2683.0,2941.0,3108.0,3096.0,3065.0,3078.0,3076.0,3052.0,3052.0,3047.0,3057.0,3063.0,3057.0,3062.0,3062.0,3059.0,3056.0,3045.0,3038.0,3026.0,3018.0,3008.0,3001.0,2989.0,2982.0,2964.0,2956.0,2946.0,2935.0,2926.0,2919.0,2906.0,2894.0,2886.0,2875.0,2866.0,2852.0,2851.0,2841.0,2833.0,2821.0,2815.0,2806.0,2800.0,2794.0,2782.0,2781.0,2773.0,2766.0,2766.0,2760.0,2755.0,2748.0,2745.0,2740.0,2740.0,2735.0,2735.0,2735.0,2732.0,2738.0,2737.0,2734.0,2740.0,2743.0,2740.0,2745.0,2744.0,2748.0,2748.0,2741.0,2747.0,2746.0,2751.0,2749.0,2752.0,2752.0,2751.0,2750.0,2748.0,2748.0,2745.0,2747.0,2748.0,2748.0,2743.0,2742.0,2746.0,2743.0,2743.0,2744.0,2740.0,2742.0,2737.0,2739.0,2738.0,2742.0,2741.0,2742.0,2742.0,2742.0,2747.0,2743.0,2747.0,2755.0,2758.0,2762.0,2767.0,2771.0,2777.0,2784.0,2787.0,2796.0,2800.0,2808.0,2813.0,2830.0,2840.0,2843.0,2855.0,2862.0,2877.0,2880.0,2892.0,2903.0,2917.0,2927.0,2933.0,2953.0,2968.0,2978.0,2991.0,3001.0,3008.0,3020.0,3031.0,3038.0,3056.0,3065.0,3078.0,3088.0,3099.0,3113.0,3118.0,3131.0,3143.0,3146.0,3155.0,3159.0,3169.0,3176.0,3185.0,3191.0,3192.0,3199.0,3202.0,3203.0,3203.0,3208.0,3210.0,3208.0,3208.0,3207.0,3210.0,3206.0,3205.0,3203.0,3196.0,3191.0,3189.0,3185.0,3184.0,3183.0,3180.0,3176.0,3172.0,3165.0,3164.0,3154.0,3152.0,3145.0,3142.0,3134.0,3136.0,3133.0,3133.0,3123.0,3120.0,3120.0,3113.0,3111.0,3109.0,3109.0,3104.0,3100.0,3100.0,3102.0,3102.0,3101.0,3100.0,3102.0,3100.0,3100.0,3105.0,3101.0,3103.0,3109.0,3105.0,3110.0,3111.0,3110.0,3118.0,3119.0,3119.0,3122.0,3122.0,3123.0,3122.0,3118.0,3125.0,3125.0,3124.0,3127.0,3119.0,3117.0,3119.0,3121.0,3118.0,3118.0,3117.0,3114.0,3121.0,3112.0,3108.0,3111.0,3107.0,3108.0,3107.0,3108.0,3107.0,3108.0,3107.0,3115.0,3116.0,3121.0,3112.0,3109.0,3109.0,3116.0,3111.0,3106.0,3110.0,3113.0,3111.0,3112.0,3111.0,3111.0,3106.0,3113.0,3129.0,1076.0,0.0,0.0,0.0,0.0,0.0,0.0,0.0,0.0,0.0,0.0,0.0,0.0,0.0,0.0,1293.0,2072.0,2494.0,2775.0,2932.0,3142.0,3138.0,3100.0,3089.0,3092.0,3082.0,3063.0,3042.0","0","even","NA","NA","NA","arithmetic","84374","191307","NA","80363","196308","NA","79942","NA","NA","1664","189803","NA","191308","NA","1761","NA","NA","NA","196612","NA","188420","NA","196309","NA","189451","NA","187551","NA","80363","3094","NA","NA","NA","NA","79942","188420","NA","Extended template","0","0","0","yes","1024"
"undefined","undefined","undefined","undefined","black","yes","xpyriment","legacy","legacy","0","uniform","undefined","undefined","0","11","NA","0","11","NA","0","0","0","0","11","NA","11","NA","0","0","NA","NA","11","NA","11","NA","11","NA","11","NA","11","NA","0","0","0","0","NA","NA","0","11","NA","10/18/18 13:30:07","A template containing a practice and an experimental phase","easy","yes","Experiment.osexp","C:\Users\EEGExp\Desktop","no","mono","no","18","no","white","no","Ok","yes","768","legacy","11","11","0","C:/Users/EEGExp/Desktop/subject-0.csv","xpyriment","Kafkaesque Koffka","3.2.5","yes","[ 2884.  2879.  2880.  2868.  2869.  2863.  2861.  2860.  2853.  2849.
  2854.  2848.  2850.  2850.  2850.  2844.  2843.  2845.  2853.  2851.
  2853.  2855.  2858.  2857.  2860.  2871.  2875.  2875.  2877.  2879.
  2880.  2880.  2884.  2879.  2883.  2880.  2882.  2880.  2872.  2874.
  2870.  2863.  2857.  2853.  2842.  2866.  2556.  1074.  1049.  1319.
  2035.  2442.  2608.  2824.  2887.  2866.  2840.  2860.  2852.  2833.
  2804.  2793.  2785.  2769.  2762.  2744.  2740.  2720.  2716.  2701.
  2690.  2684.  2674.  2663.  2656.  2648.  2645.  2636.  2632.  2623.
  2624.  2624.  2616.  2620.  2619.  2616.  2613.  2613.  2615.  2615.
  2612.  2614.  2615.  2618.  2619.  2618.  2623.  2625.  2627.  2629.
  2633.  2640.  2643.  2650.  2651.  2657.  2667.  2672.  2682.  2682.
  2691.  2695.  2701.  2705.  2713.  2718.  2726.  2730.  2738.  2740.
  2750.  2752.  2756.  2765.  2770.  2781.  2781.  2784.  2787.  2792.
  2790.  2799.  2800.  2802.  2809.  2814.  2821.  2820.  2820.  2825.
  2830.  2834.  2837.  2841.  2846.  2848.  2860.  2861.  2861.  2866.
  2867.  2874.  2875.  2876.  2889.  2889.  2896.  2894.  2902.  2902.
  2910.  2911.  2912.  2918.  2924.  2930.  2932.  2938.  2941.  2938.
  2945.  2944.  2949.  2947.  2948.  2949.  2963.  2958.  2958.  2959.
  2964.  2964.  2957.  2964.  2972.  2971.  2971.  2973.  2977.  2977.
  2977.  2983.  2985.  2988.  2986.  2986.  2988.  2986.  2989.  2989.
  2989.  2992.  2992.  2995.  2998.  2999.  2998.  3000.  2998.  3001.
  3001.  3000.  2998.  2995.  3008.  3003.  3005.  3013.  3013.  3014.
  3016.  3022.  3020.  3016.  3025.  3025.  3030.  3028.  3031.  3034.
  3033.  3035.  3039.  3047.  3049.  3048.  3056.  3068.  3071.  3072.
  3083.  3087.  3090.  3098.  3100.  3105.  3110.  3109.  3108.  3117.
  3118.  3125.  3130.  3130.  3131.  3138.  3144.  3145.  3147.  3152.
  3156.  3156.  3156.  3158.  3157.  3162.  3169.  3169.  3175.  3177.
  3179.  3190.  3193.  3196.  3191.  3192.  3205.  3200.  3206.  3207.
  3208.  3204.  3212.  3215.  3212.  3219.  3216.  3209.  3211.  3206.
  3207.  3207.  3203.  3200.  3195.  3221.  2843.   494.  1193.  1891.
  2199.  2514.  2758.  2880.  3035.  3204.  3215.  3208.  3187.  3190.
  3200.  3201.  3186.  3164.  3147.  3139.  3130.  3123.  3115.  3106.
  3093.  3086.  3077.  3064.  3052.  3035.  3028.  3012.  3004.  3000.
  2989.  2979.  2968.  2959.  2952.  2939.  2929.  2926.  2911.  2897.
  2888.  2877.  2870.  2866.  2853.  2840.  2824.  2812.  2798.  2785.
  2778.  2760.  2752.  2740.  2723.  2711.  2697.  2689.  2680.  2670.
  2655.  2646.  2638.  2628.  2624.  2614.  2605.  2593.  2593.  2584.
  2584.  2583.  2578.  2572.  2573.  2568.  2569.  2568.  2568.  2572.
  2568.  2569.  2570.  2571.  2574.  2573.  2578.  2579.  2584.  2585.
  2591.  2597.  2602.  2605.  2605.  2608.  2612.  2616.  2617.  2627.
  2632.  2636.  2643.  2644.  2655.  2663.  2670.  2676.  2682.  2687.
  2700.  2710.  2711.  2721.  2723.  2736.  2743.  2751.  2762.  2771.
  2780.  2785.  2794.  2799.  2804.  2811.  2823.  2827.  2835.  2838.
  2848.  2848.  2850.  2860.  2868.  2866.  2869.  2870.  2878.  2878.
  2884.  2889.  2888.  2891.  2892.  2903.  2904.  2902.  2905.  2912.
  2912.  2914.  2919.  2921.  2923.  2923.  2926.  2925.  2926.  2927.
  2927.  2926.  2928.  2922.  2925.  2924.  2928.]","4 + 3","0","c","NA","NA","c","1332","NA","NA","1332","LinregressResult(slope=0.17651130671413551, intercept=2807.6513863488067, rvalue=0.087407041900345275, pvalue=0.059102012331850973, stderr=0.093289820629425466)","2","legacy","0.176511306714","1024","2","48000","-16","experiment","2884.0,2879.0,2880.0,2868.0,2869.0,2863.0,2861.0,2860.0,2853.0,2849.0,2854.0,2848.0,2850.0,2850.0,2850.0,2844.0,2843.0,2845.0,2853.0,2851.0,2853.0,2855.0,2858.0,2857.0,2860.0,2871.0,2875.0,2875.0,2877.0,2879.0,2880.0,2880.0,2884.0,2879.0,2883.0,2880.0,2882.0,2880.0,2872.0,2874.0,2870.0,2863.0,2857.0,2853.0,2842.0,2866.0,2556.0,1074.0,0.0,0.0,0.0,0.0,0.0,0.0,0.0,0.0,0.0,0.0,0.0,0.0,0.0,0.0,0.0,0.0,0.0,0.0,0.0,0.0,0.0,0.0,1049.0,1319.0,2035.0,2442.0,2608.0,2824.0,2887.0,2866.0,2840.0,2860.0,2852.0,2833.0,2804.0,2793.0,2785.0,2769.0,2762.0,2744.0,2740.0,2720.0,2716.0,2701.0,2690.0,2684.0,2674.0,2663.0,2656.0,2648.0,2645.0,2636.0,2632.0,2623.0,2624.0,2624.0,2616.0,2620.0,2619.0,2616.0,2613.0,2613.0,2615.0,2615.0,2612.0,2614.0,2615.0,2618.0,2619.0,2618.0,2623.0,2625.0,2627.0,2629.0,2633.0,2640.0,2643.0,2650.0,2651.0,2657.0,2667.0,2672.0,2682.0,2682.0,2691.0,2695.0,2701.0,2705.0,2713.0,2718.0,2726.0,2730.0,2738.0,2740.0,2750.0,2752.0,2756.0,2765.0,2770.0,2781.0,2781.0,2784.0,2787.0,2792.0,2790.0,2799.0,2800.0,2802.0,2809.0,2814.0,2821.0,2820.0,2820.0,2825.0,2830.0,2834.0,2837.0,2841.0,2846.0,2848.0,2860.0,2861.0,2861.0,2866.0,2867.0,2874.0,2875.0,2876.0,2889.0,2889.0,2896.0,2894.0,2902.0,2902.0,2910.0,2911.0,2912.0,2918.0,2924.0,2930.0,2932.0,2938.0,2941.0,2938.0,2945.0,2944.0,2949.0,2947.0,2948.0,2949.0,2963.0,2958.0,2958.0,2959.0,2964.0,2964.0,2957.0,2964.0,2972.0,2971.0,2971.0,2973.0,2977.0,2977.0,2977.0,2983.0,2985.0,2988.0,2986.0,2986.0,2988.0,2986.0,2989.0,2989.0,2989.0,2992.0,2992.0,2995.0,2998.0,2999.0,2998.0,3000.0,2998.0,3001.0,3001.0,3000.0,2998.0,2995.0,3008.0,3003.0,3005.0,3013.0,3013.0,3014.0,3016.0,3022.0,3020.0,3016.0,3025.0,3025.0,3030.0,3028.0,3031.0,3034.0,3033.0,3035.0,3039.0,3047.0,3049.0,3048.0,3056.0,3068.0,3071.0,3072.0,3083.0,3087.0,3090.0,3098.0,3100.0,3105.0,3110.0,3109.0,3108.0,3117.0,3118.0,3125.0,3130.0,3130.0,3131.0,3138.0,3144.0,3145.0,3147.0,3152.0,3156.0,3156.0,3156.0,3158.0,3157.0,3162.0,3169.0,3169.0,3175.0,3177.0,3179.0,3190.0,3193.0,3196.0,3191.0,3192.0,3205.0,3200.0,3206.0,3207.0,3208.0,3204.0,3212.0,3215.0,3212.0,3219.0,3216.0,3209.0,3211.0,3206.0,3207.0,3207.0,3203.0,3200.0,3195.0,3221.0,2843.0,0.0,0.0,0.0,0.0,0.0,0.0,0.0,0.0,0.0,0.0,494.0,0.0,1193.0,1891.0,2199.0,2514.0,2758.0,2880.0,3035.0,3204.0,3215.0,3208.0,3187.0,3190.0,3200.0,3201.0,3186.0,3164.0,3147.0,3139.0,3130.0,3123.0,3115.0,3106.0,3093.0,3086.0,3077.0,3064.0,3052.0,3035.0,3028.0,3012.0,3004.0,3000.0,2989.0,2979.0,2968.0,2959.0,2952.0,2939.0,2929.0,2926.0,2911.0,2897.0,2888.0,2877.0,2870.0,2866.0,2853.0,2840.0,2824.0,2812.0,2798.0,2785.0,2778.0,2760.0,2752.0,2740.0,2723.0,2711.0,2697.0,2689.0,2680.0,2670.0,2655.0,2646.0,2638.0,2628.0,2624.0,2614.0,2605.0,2593.0,2593.0,2584.0,2584.0,2583.0,2578.0,2572.0,2573.0,2568.0,2569.0,2568.0,2568.0,2572.0,2568.0,2569.0,2570.0,2571.0,2574.0,2573.0,2578.0,2579.0,2584.0,2585.0,2591.0,2597.0,2602.0,2605.0,2605.0,2608.0,2612.0,2616.0,2617.0,2627.0,2632.0,2636.0,2643.0,2644.0,2655.0,2663.0,2670.0,2676.0,2682.0,2687.0,2700.0,2710.0,2711.0,2721.0,2723.0,2736.0,2743.0,2751.0,2762.0,2771.0,2780.0,2785.0,2794.0,2799.0,2804.0,2811.0,2823.0,2827.0,2835.0,2838.0,2848.0,2848.0,2850.0,2860.0,2868.0,2866.0,2869.0,2870.0,2878.0,2878.0,2884.0,2889.0,2888.0,2891.0,2892.0,2903.0,2904.0,2902.0,2905.0,2912.0,2912.0,2914.0,2919.0,2921.0,2923.0,2923.0,2926.0,2925.0,2926.0,2927.0,2927.0,2926.0,2928.0,2922.0,2925.0,2924.0,2928.0","0","even","NA","NA","NA","arithmetic","84374","200690","NA","80363","205692","NA","79942","NA","NA","1664","199186","NA","200692","NA","1761","NA","NA","NA","205996","NA","197502","NA","205693","NA","198833","NA","196626","NA","80363","3094","NA","NA","NA","NA","79942","197502","NA","Extended template","0","0","0","yes","1024"
"undefined","undefined","undefined","undefined","black","yes","xpyriment","legacy","legacy","0","uniform","undefined","undefined","0","12","NA","0","12","NA","0","0","0","0","12","NA","12","NA","0","0","NA","NA","12","NA","12","NA","12","NA","12","NA","12","NA","0","0","0","0","NA","NA","0","12","NA","10/18/18 13:30:07","A template containing a practice and an experimental phase","easy","yes","Experiment.osexp","C:\Users\EEGExp\Desktop","no","mono","no","18","no","white","no","Ok","yes","768","legacy","12","12","0","C:/Users/EEGExp/Desktop/subject-0.csv","xpyriment","Kafkaesque Koffka","3.2.5","yes","[ 2383.  2382.  2380.  2382.  2377.  2378.  2380.  2383.  2384.  2380.
  2377.  2378.  2375.  2377.  2378.  2375.  2377.  2378.  2378.  2378.
  2383.  2384.  2383.  2383.  2384.  2382.  2383.  2388.  2384.  2384.
  2385.  2385.  2378.  2376.  2369.  2362.  2358.  2354.  2350.  2336.
  2330.  2322.  2316.  2308.  2301.  2295.  2294.  2281.  2278.  2278.
  2276.  2271.  2270.  2269.  2267.  2270.  2266.  2268.  2267.  2265.
  2270.  2270.  2270.  2268.  2265.  2266.  2264.  2259.  2259.  2252.
  2246.  2241.  2229.  2220.  2212.  2205.  2187.  2181.  2169.  2159.
  2145.  2136.  2127.  2117.  2111.  2096.  2088.  2078.  2074.  2063.
  2054.  2056.  2050.  2043.  2037.  2030.  2027.  2024.  2017.  2020.
  2019.  2018.  2013.  2012.  2009.  2006.  2009.  2005.  2006.  2007.
