"acc","accuracy","average_response_time","avg","avg_rt","background","bidi","canvas_backend","clock_backend","color_backend","compensation","coordinates","correct","correct_instructions","count_arithmetic","count_arithmetic_task","count_blank_screen_1","count_blocksequence","count_calc_slope","count_calc_slope_1","count_collect_pupil_trace","count_end_of_experiment","count_end_of_practice","count_experiment","count_fixation_cross","count_fixation_cross_1","count_getdata","count_instructions","count_instructions2","count_letter_task_1","count_new_inline_script_1","count_new_logger","count_new_logger_1","count_new_pygaze_drift_correct","count_new_pygaze_drift_correct_1","count_new_pygaze_log","count_new_pygaze_log_2","count_new_pygaze_start_recording","count_new_pygaze_start_recording_1","count_new_pygaze_stop_recording","count_new_pygaze_stop_recording_1","count_practice_instructions","count_pygaze_init","count_reset_feedback","count_reversal","count_test","count_test1","count_training","count_trial_sequence","count_trial_sequence_1","datetime","description","difficulty","disable_garbage_collection","experiment_file","experiment_path","font_bold","font_family","font_italic","font_size","font_underline","foreground","form_clicks","form_response","fullscreen","height","keyboard_backend","live_row","live_row_arithmetic","live_row_training","logfile","mouse_backend","opensesame_codename","opensesame_version","practice","pupilsizes","question_no","repeat_cycle","response","response_end_of_experiment","response_end_of_practice","response_instructions","response_time","response_time_end_of_experiment","response_time_end_of_practice","response_time_instructions","result","round_decimals","sampler_backend","slope","sound_buf_size","sound_channels","sound_freq","sound_sample_size","start","str_pupilsizes","subject_nr","subject_parity","t0","t1","t2","time_arithmetic","time_arithmetic_task","time_blank_screen_1","time_blocksequence","time_calc_slope","time_calc_slope_1","time_collect_pupil_trace","time_end_of_experiment","time_end_of_practice","time_experiment","time_fixation_cross","time_fixation_cross_1","time_getdata","time_instructions","time_instructions2","time_letter_task_1","time_new_inline_script_1","time_new_logger","time_new_logger_1","time_new_pygaze_drift_correct","time_new_pygaze_drift_correct_1","time_new_pygaze_log","time_new_pygaze_log_2","time_new_pygaze_start_recording","time_new_pygaze_start_recording_1","time_new_pygaze_stop_recording","time_new_pygaze_stop_recording_1","time_practice_instructions","time_pygaze_init","time_reset_feedback","time_reversal","time_test","time_test1","time_training","time_trial_sequence","time_trial_sequence_1","title","total_correct","total_response_time","total_responses","uniform_coordinates","width"
"undefined","undefined","undefined","NA","undefined","black","yes","xpyriment","legacy","legacy","0","uniform","undefined","undefined","0","0","NA","0","0","NA","0","0","0","0","0","NA","0","0","0","NA","NA","0","NA","0","NA","0","NA","0","NA","0","NA","0","0","0","0","0","0","0","0","NA","10/11/18 13:35:37","A template containing a practice and an experimental phase","medium","yes","Experiment.osexp","C:\Users\EEGExp\Desktop","no","mono","no","18","no","white","no","Ok","yes","768","legacy","0","0","0","C:/Users/EEGExp/Desktop/subject-21.csv","xpyriment","Kafkaesque Koffka","3.2.5","yes","[ 2944.  2937.  2936.  2936.  2936.  2936.  2932.  2926.  2926.  2930.
  2921.  2918.  2916.  2915.  2906.  2904.  2898.  2889.  2883.  2875.
  2868.  2860.  2848.  2842.  2824.  2822.  2806.  2805.  2800.  2795.
  2786.  2780.  2774.  2770.  2762.  2754.  2755.  2747.  2744.  2744.
  2740.  2733.  2731.  2727.  2726.  2725.  2716.  2715.  2711.  2706.
  2705.  2705.  2696.  2695.  2692.  2690.  2680.  2682.  2682.  2682.
  2679.  2675.  2672.  2670.  2666.  2667.  2667.  2667.  2664.  2664.
  2659.  2659.  2663.  2664.  2669.  2671.  2663.  2671.  2675.  2679.
  2681.  2684.  2693.  2693.  2695.  2703.  2706.  2716.  2724.  2733.
  2732.  2742.  2751.  2755.  2761.  2769.  2784.  2813.  2814.  2818.
  2817.  2823.  2827.  2832.  2838.  2838.  2848.  2853.  2857.  2858.
  2868.  2872.  2879.  2876.  2876.  2881.  2887.  2886.  2890.  2896.
  2896.  2897.  2910.  2905.  2904.  2903.  2909.  2908.  2911.  2909.
  2910.  2913.  2926.  2924.  2925.  2926.  2928.  2935.  2931.  2933.
  2938.  2936.  2935.  2940.  2945.  2948.  2945.  2947.  2946.  2948.
  2959.  2957.  2962.  2960.  2961.  2964.  2963.  2967.  2973.  2974.
  2972.  2971.  2971.  2977.  2981.  2981.  2985.  2935.  1303.     0.
     0.     0.     0.     0.     0.     0.     0.     0.     0.     0.
     0.     0.     0.     0.   361.     0.  1015.  1205.  1883.  2194.
  2530.  2809.  3135.  3272.  3260.  3192.  3143.  3127.  3135.  3134.
  3131.  3127.  3127.  3125.  3115.  3119.  3113.  3101.  3093.  3088.
  3079.  3069.  3056.  3052.  3047.  3035.  3031.  3016.  3009.  2999.
  2987.  2978.  2975.  2956.  2954.  2939.  2928.  2919.  2909.  2903.
  2895.  2888.  2882.  2875.  2863.  2859.  2848.  2848.  2844.  2840.
  2836.  2834.  2835.  2835.  2833.  2831.  2828.  2826.  2828.  2830.
  2835.  2832.  2832.  2833.  2835.  2835.  2831.  2832.  2833.  2836.
  2837.  2839.  2836.  2841.  2840.  2846.  2845.  2845.  2845.  2849.
  2849.  2851.  2851.  2851.  2858.  2860.  2860.  2864.  2861.  2874.
  2863.  2872.  2877.  2879.  2878.  2880.  2884.  2885.  2886.  2894.
  2898.  2900.  2910.  2911.  2911.  2917.  2924.  2927.  2933.  2936.
  2937.  2945.  2950.  2952.  2957.  2956.  2961.  2965.  2965.  2969.
  2969.  2974.  2977.  2980.  2981.  2979.  2985.  2984.  2985.  2985.
  2988.  2990.  2996.  2995.  2997.  2998.  3002.  3006.  3008.  3007.
  3010.  3015.  3015.  3012.  3019.  3022.  3023.  3031.  3030.  3035.
  3037.  3038.  3045.  3048.  3052.  3055.  3064.  3068.  3074.  3078.
  3077.  3084.  3094.  3102.  3094.  3103.  3109.  3110.  3114.  3115.
  3121.  3124.  3123.  3126.  3126.  3131.  3130.  3128.  3128.  3133.
  3146.  3151.  3143.  3148.  3148.  3150.  3151.  3152.  3160.  3161.
  3162.  3161.  3167.  3165.  3167.  3175.  3172.  3169.  3174.  3171.
  3179.  3181.  3183.  3184.  3184.  3182.  3182.  3189.  3182.  3183.]","4x = 16","0","return","NA","NA","return","1645","NA","NA","1645","NA","2","legacy","NA","1024","2","48000","-16","experiment","2944.0,2937.0,2936.0,2936.0,2936.0,2936.0,2932.0,2926.0,2926.0,2930.0,2921.0,2918.0,2916.0,2915.0,2906.0,2904.0,2898.0,2889.0,2883.0,2875.0,2868.0,2860.0,2848.0,2842.0,2824.0,2822.0,2806.0,2805.0,2800.0,2795.0,2786.0,2780.0,2774.0,2770.0,2762.0,2754.0,2755.0,2747.0,2744.0,2744.0,2740.0,2733.0,2731.0,2727.0,2726.0,2725.0,2716.0,2715.0,2711.0,2706.0,2705.0,2705.0,2696.0,2695.0,2692.0,2690.0,2680.0,2682.0,2682.0,2682.0,2679.0,2675.0,2672.0,2670.0,2666.0,2667.0,2667.0,2667.0,2664.0,2664.0,2659.0,2659.0,2663.0,2664.0,2669.0,2671.0,2663.0,2671.0,2675.0,2679.0,2681.0,2684.0,2693.0,2693.0,2695.0,2703.0,2706.0,2716.0,2724.0,2733.0,2732.0,2742.0,2751.0,2755.0,2761.0,2769.0,2784.0,2813.0,2814.0,2818.0,2817.0,2823.0,2827.0,2832.0,2838.0,2838.0,2848.0,2853.0,2857.0,2858.0,2868.0,2872.0,2879.0,2876.0,2876.0,2881.0,2887.0,2886.0,2890.0,2896.0,2896.0,2897.0,2910.0,2905.0,2904.0,2903.0,2909.0,2908.0,2911.0,2909.0,2910.0,2913.0,2926.0,2924.0,2925.0,2926.0,2928.0,2935.0,2931.0,2933.0,2938.0,2936.0,2935.0,2940.0,2945.0,2948.0,2945.0,2947.0,2946.0,2948.0,2959.0,2957.0,2962.0,2960.0,2961.0,2964.0,2963.0,2967.0,2973.0,2974.0,2972.0,2971.0,2971.0,2977.0,2981.0,2981.0,2985.0,2935.0,1303.0,0.0,0.0,0.0,0.0,0.0,0.0,0.0,0.0,0.0,0.0,0.0,0.0,0.0,0.0,0.0,361.0,0.0,1015.0,1205.0,1883.0,2194.0,2530.0,2809.0,3135.0,3272.0,3260.0,3192.0,3143.0,3127.0,3135.0,3134.0,3131.0,3127.0,3127.0,3125.0,3115.0,3119.0,3113.0,3101.0,3093.0,3088.0,3079.0,3069.0,3056.0,3052.0,3047.0,3035.0,3031.0,3016.0,3009.0,2999.0,2987.0,2978.0,2975.0,2956.0,2954.0,2939.0,2928.0,2919.0,2909.0,2903.0,2895.0,2888.0,2882.0,2875.0,2863.0,2859.0,2848.0,2848.0,2844.0,2840.0,2836.0,2834.0,2835.0,2835.0,2833.0,2831.0,2828.0,2826.0,2828.0,2830.0,2835.0,2832.0,2832.0,2833.0,2835.0,2835.0,2831.0,2832.0,2833.0,2836.0,2837.0,2839.0,2836.0,2841.0,2840.0,2846.0,2845.0,2845.0,2845.0,2849.0,2849.0,2851.0,2851.0,2851.0,2858.0,2860.0,2860.0,2864.0,2861.0,2874.0,2863.0,2872.0,2877.0,2879.0,2878.0,2880.0,2884.0,2885.0,2886.0,2894.0,2898.0,2900.0,2910.0,2911.0,2911.0,2917.0,2924.0,2927.0,2933.0,2936.0,2937.0,2945.0,2950.0,2952.0,2957.0,2956.0,2961.0,2965.0,2965.0,2969.0,2969.0,2974.0,2977.0,2980.0,2981.0,2979.0,2985.0,2984.0,2985.0,2985.0,2988.0,2990.0,2996.0,2995.0,2997.0,2998.0,3002.0,3006.0,3008.0,3007.0,3010.0,3015.0,3015.0,3012.0,3019.0,3022.0,3023.0,3031.0,3030.0,3035.0,3037.0,3038.0,3045.0,3048.0,3052.0,3055.0,3064.0,3068.0,3074.0,3078.0,3077.0,3084.0,3094.0,3102.0,3094.0,3103.0,3109.0,3110.0,3114.0,3115.0,3121.0,3124.0,3123.0,3126.0,3126.0,3131.0,3130.0,3128.0,3128.0,3133.0,3146.0,3151.0,3143.0,3148.0,3148.0,3150.0,3151.0,3152.0,3160.0,3161.0,3162.0,3161.0,3167.0,3165.0,3167.0,3175.0,3172.0,3169.0,3174.0,3171.0,3179.0,3181.0,3183.0,3184.0,3184.0,3182.0,3182.0,3189.0,3182.0,3183.0","21","odd","79870","84876","5006","70388","79875","NA","67226","NA","NA","66482","NA","NA","2327","78370","NA","79876","2489","NA","NA","NA","85174","NA","70860","NA","84876","NA","78010","NA","NA","NA","67226","4135","NA","NA","84876","79870","66483","70860","NA","Extended template","0","0","0","yes","1024"
"undefined","undefined","undefined","NA","undefined","black","yes","xpyriment","legacy","legacy","0","uniform","undefined","undefined","0","1","NA","0","1","NA","0","0","0","0","1","NA","1","0","0","NA","NA","1","NA","1","NA","1","NA","1","NA","1","NA","0","0","0","0","1","1","0","1","NA","10/11/18 13:35:37","A template containing a practice and an experimental phase","hard","yes","Experiment.osexp","C:\Users\EEGExp\Desktop","no","mono","no","18","no","white","no","Ok","yes","768","legacy","1","1","0","C:/Users/EEGExp/Desktop/subject-21.csv","xpyriment","Kafkaesque Koffka","3.2.5","yes","[ 2923.  2912.  2908.  2905.  2900.  2889.  2886.  2878.  2867.  2858.
  2846.  2836.  2828.  2819.  2810.  2802.  2795.  2791.  2780.  2769.
  2767.  2757.  2754.  2740.  2742.  2733.  2720.  2714.  2706.  2703.
  2701.  2691.  2685.  2678.  2678.  2669.  2663.  2657.  2655.  2653.
  2648.  2645.  2643.  2638.  2630.  2633.  2633.  2629.  2625.  2631.
  2631.  2631.  2626.  2628.  2624.  2620.  2622.  2623.  2626.  2630.
  2630.  2634.  2632.  2633.  2633.  2641.  2640.  2640.  2647.  2659.
  2660.  2661.  2664.  2667.  2673.  2672.  2673.  2680.  2687.  2693.
  2693.  2701.  2704.  2711.  2719.  2720.  2729.  2732.  2737.  2743.
  2748.  2755.  2763.  2767.  2766.  2772.  2780.  2786.  2793.  2806.
  2801.  2805.  2813.  2816.  2824.  2836.  2838.  2845.  2850.  2861.
  2869.  2875.  2888.  2890.  2904.  2904.  2910.  2924.  2935.  2943.
  2949.  2957.  2965.  2968.  2977.  2990.  3001.  3011.  3019.  3161.
  2295.  1051.     0.     0.     0.     0.     0.     0.     0.     0.
     0.     0.     0.     0.     0.     0.     0.     0.     0.     0.
     0.     0.     0.     0.     0.     0.     0.     0.     0.   447.
     0.  1216.  1927.  2217.  2450.  2759.  3039.  3148.  3173.  3128.
  3055.  2998.  2989.  2971.  2948.  2927.  2910.  2891.  2877.  2862.
  2846.  2838.  2819.  2805.  2794.  2786.  2770.  2763.  2756.  2748.
  2743.  2735.  2733.  2724.  2724.  2713.  2717.  2711.  2701.  2701.
  2701.  2690.  2690.  2686.  2689.  2684.  2678.  2679.  2674.  2673.
  2665.  2665.  2662.  2661.  2660.  2660.  2656.  2657.  2657.  2660.
  2653.  2653.  2654.  2655.  2650.  2653.  2656.  2655.  2659.  2657.
  2658.  2654.  2655.  2659.  2657.  2659.  2660.  2666.  2668.  2666.
  2674.  2673.  2683.  2684.  2685.  2689.  2697.  2698.  2706.  2708.
  2714.  2713.  2721.  2727.  2727.  2736.  2753.  2748.  2750.  2760.
  2764.  2765.  2769.  2773.  2774.  2778.  2785.  2797.  2799.  2800.
  2805.  2809.  2815.  2818.  2824.  2829.  2831.  2842.  2847.  2851.
  2857.  2856.  2863.  2874.  2883.  2878.  2884.  2893.  2898.  2898.
  2902.  2910.  2914.  2923.  2922.  2927.  2929.  2931.  2936.  2947.
  2946.  2948.  2954.  2957.  2958.  2959.  2963.  2975.  2975.  2978.
  2974.  2978.  2983.  2985.  2986.  2991.  2997.  3000.  3004.  3013.
  3016.  3019.  3024.  3026.  3033.  3040.  3043.  3048.  3054.  3058.
  3064.  3074.  3076.  3084.  3088.  3099.  3103.  3109.  3113.  3117.
  3128.  3136.  3142.  3148.  3149.  3161.  3165.  3171.  3174.  3182.
  3185.  3191.  3188.  3196.  3197.  3205.  3221.  3236.  3225.  3226.
  3228.  3227.  3231.  3229.  3229.  3221.  3221.  3220.  3224.  3223.
  3216.  3211.  3212.  3211.  3211.  3216.  3211.  3207.  3209.  3212.
  3201.  3205.  3199.  3196.  3193.  3195.  3191.  3186.  3186.  3187.
  3181.  3179.  3171.  3175.  3168.  3163.  3166.  3168.  3158.  3154.]","3x - 3 = 6","0","return","NA","NA","return","1645","NA","NA","1645","LinregressResult(slope=1.0778616428852681, intercept=2564.4162406015039, rvalue=0.20065170379223285, pvalue=5.3075841516302587e-05, stderr=0.26378808614876254)","2","legacy","1.07786164289","1024","2","48000","-16","experiment","2923.0,2912.0,2908.0,2905.0,2900.0,2889.0,2886.0,2878.0,2867.0,2858.0,2846.0,2836.0,2828.0,2819.0,2810.0,2802.0,2795.0,2791.0,2780.0,2769.0,2767.0,2757.0,2754.0,2740.0,2742.0,2733.0,2720.0,2714.0,2706.0,2703.0,2701.0,2691.0,2685.0,2678.0,2678.0,2669.0,2663.0,2657.0,2655.0,2653.0,2648.0,2645.0,2643.0,2638.0,2630.0,2633.0,2633.0,2629.0,2625.0,2631.0,2631.0,2631.0,2626.0,2628.0,2624.0,2620.0,2622.0,2623.0,2626.0,2630.0,2630.0,2634.0,2632.0,2633.0,2633.0,2641.0,2640.0,2640.0,2647.0,2659.0,2660.0,2661.0,2664.0,2667.0,2673.0,2672.0,2673.0,2680.0,2687.0,2693.0,2693.0,2701.0,2704.0,2711.0,2719.0,2720.0,2729.0,2732.0,2737.0,2743.0,2748.0,2755.0,2763.0,2767.0,2766.0,2772.0,2780.0,2786.0,2793.0,2806.0,2801.0,2805.0,2813.0,2816.0,2824.0,2836.0,2838.0,2845.0,2850.0,2861.0,2869.0,2875.0,2888.0,2890.0,2904.0,2904.0,2910.0,2924.0,2935.0,2943.0,2949.0,2957.0,2965.0,2968.0,2977.0,2990.0,3001.0,3011.0,3019.0,3161.0,2295.0,1051.0,0.0,0.0,0.0,0.0,0.0,0.0,0.0,0.0,0.0,0.0,0.0,0.0,0.0,0.0,0.0,0.0,0.0,0.0,0.0,0.0,0.0,0.0,0.0,0.0,0.0,0.0,0.0,447.0,0.0,1216.0,1927.0,2217.0,2450.0,2759.0,3039.0,3148.0,3173.0,3128.0,3055.0,2998.0,2989.0,2971.0,2948.0,2927.0,2910.0,2891.0,2877.0,2862.0,2846.0,2838.0,2819.0,2805.0,2794.0,2786.0,2770.0,2763.0,2756.0,2748.0,2743.0,2735.0,2733.0,2724.0,2724.0,2713.0,2717.0,2711.0,2701.0,2701.0,2701.0,2690.0,2690.0,2686.0,2689.0,2684.0,2678.0,2679.0,2674.0,2673.0,2665.0,2665.0,2662.0,2661.0,2660.0,2660.0,2656.0,2657.0,2657.0,2660.0,2653.0,2653.0,2654.0,2655.0,2650.0,2653.0,2656.0,2655.0,2659.0,2657.0,2658.0,2654.0,2655.0,2659.0,2657.0,2659.0,2660.0,2666.0,2668.0,2666.0,2674.0,2673.0,2683.0,2684.0,2685.0,2689.0,2697.0,2698.0,2706.0,2708.0,2714.0,2713.0,2721.0,2727.0,2727.0,2736.0,2753.0,2748.0,2750.0,2760.0,2764.0,2765.0,2769.0,2773.0,2774.0,2778.0,2785.0,2797.0,2799.0,2800.0,2805.0,2809.0,2815.0,2818.0,2824.0,2829.0,2831.0,2842.0,2847.0,2851.0,2857.0,2856.0,2863.0,2874.0,2883.0,2878.0,2884.0,2893.0,2898.0,2898.0,2902.0,2910.0,2914.0,2923.0,2922.0,2927.0,2929.0,2931.0,2936.0,2947.0,2946.0,2948.0,2954.0,2957.0,2958.0,2959.0,2963.0,2975.0,2975.0,2978.0,2974.0,2978.0,2983.0,2985.0,2986.0,2991.0,2997.0,3000.0,3004.0,3013.0,3016.0,3019.0,3024.0,3026.0,3033.0,3040.0,3043.0,3048.0,3054.0,3058.0,3064.0,3074.0,3076.0,3084.0,3088.0,3099.0,3103.0,3109.0,3113.0,3117.0,3128.0,3136.0,3142.0,3148.0,3149.0,3161.0,3165.0,3171.0,3174.0,3182.0,3185.0,3191.0,3188.0,3196.0,3197.0,3205.0,3221.0,3236.0,3225.0,3226.0,3228.0,3227.0,3231.0,3229.0,3229.0,3221.0,3221.0,3220.0,3224.0,3223.0,3216.0,3211.0,3212.0,3211.0,3211.0,3216.0,3211.0,3207.0,3209.0,3212.0,3201.0,3205.0,3199.0,3196.0,3193.0,3195.0,3191.0,3186.0,3186.0,3187.0,3181.0,3179.0,3171.0,3175.0,3168.0,3163.0,3166.0,3168.0,3158.0,3154.0","21","odd","89411","94417","5006","70388","89416","NA","67226","85726","NA","66482","NA","NA","2327","87911","NA","89417","2489","NA","NA","NA","94716","NA","86259","NA","94417","NA","87560","NA","85213","NA","67226","4135","NA","NA","94417","89411","66483","86259","NA","Extended template","0","0","0","yes","1024"
"undefined","undefined","undefined","NA","undefined","black","yes","xpyriment","legacy","legacy","0","uniform","undefined","undefined","0","2","NA","0","2","NA","0","0","0","0","2","NA","2","0","0","NA","NA","2","NA","2","NA","2","NA","2","NA","2","NA","0","0","0","0","2","2","0","2","NA","10/11/18 13:35:37","A template containing a practice and an experimental phase","medium","yes","Experiment.osexp","C:\Users\EEGExp\Desktop","no","mono","no","18","no","white","no","Ok","yes","768","legacy","2","2","0","C:/Users/EEGExp/Desktop/subject-21.csv","xpyriment","Kafkaesque Koffka","3.2.5","yes","[ 2794.  2782.  2778.  2776.  2774.  2769.  2765.  2761.  2759.  2763.
  2763.  2764.  2759.  2756.  2762.  2761.  2762.  2762.  2762.  2759.
  2758.  2761.  2759.  2759.  2758.  2762.  2761.  2765.  2760.  2763.
  2767.  2769.  2766.  2768.  2768.  2770.  2771.  2769.  2773.  2770.
  2771.  2775.  2772.  2769.  2768.  2772.  2772.  2770.  2771.  2763.
  2758.  2762.  2756.  2758.  2752.  2756.  2756.  2755.  2749.  2749.
  2744.  2743.  2744.  2738.  2739.  2738.  2734.  2734.  2735.  2731.
  2735.  2733.  2732.  2734.  2728.  2726.  2729.  2735.  2734.  2737.
  2739.  2741.  2742.  2744.  2750.  2752.  2758.  2761.  2761.  2776.
  2776.  2777.  2782.  2791.  2790.  2798.  2809.  2817.  2818.  2822.
  2827.  2832.  2839.  2843.  2848.  2852.  2854.  2868.  2870.  2878.
  2882.  2888.  2891.  2898.  2901.  2906.  2909.  2920.  2926.  2927.
  2928.  2932.  2934.  2940.  2936.  2985.  2997.  2153.  1111.     0.
     0.     0.     0.     0.     0.     0.     0.     0.     0.     0.
     0.     0.   296.   442.     0.  1253.  1978.  2265.  2561.  2848.
  3055.  3122.  3120.  3063.  3018.  3011.  3013.  3020.  3018.  3024.
  3024.  3026.  3025.  3027.  3028.  3022.  3019.  3015.  3008.  3005.
  3006.  2990.  2994.  2995.  2982.  2978.  2964.  2960.  2959.  2959.
  2953.  2950.  2946.  2943.  2933.  2935.  2931.  2933.  2929.  2924.
  2917.  2925.  2920.  2924.  2922.  2922.  2920.  2920.  2918.  2920.
  2921.  2929.  2932.  2930.  2928.  2931.  2934.  2934.  2939.  3082.
  2323.   987.     0.     0.     0.     0.     0.     0.     0.     0.
     0.     0.     0.     0.     0.     0.     0.     0.     0.     0.
     0.     0.     0.     0.  1019.  1287.  2046.  2341.  2675.  2972.
  3067.  3108.  3076.  3010.  2966.  2960.  2955.  2943.  2931.  2922.
  2909.  2899.  2885.  2872.  2860.  2849.  2838.  2826.  2819.  2811.
  2804.  2791.  2786.  2775.  2772.  2771.  2759.  2756.  2752.  2751.
  2748.  2744.  2741.  2739.  2735.  2733.  2730.  2730.  2720.  2723.
  2724.  2719.  2717.  2716.  2716.  2721.  2715.  2713.  2709.  2712.
  2711.  2707.  2705.  2702.  2698.  2700.  2701.  2690.  2693.  2692.
  2694.  2692.  2693.  2690.  2687.  2691.  2686.  2686.  2687.  2685.
  2688.  2689.  2685.  2687.  2685.  2680.  2679.  2684.  2683.  2682.
  2687.  2683.  2683.  2683.  2687.  2687.  2687.  2701.  2689.  2691.
  2692.  2696.  2698.  2697.  2695.  2697.  2702.  2706.  2704.  2710.
  2712.  2714.  2718.  2720.  2725.  2734.  2733.  2737.  2737.  2745.
  2752.  2750.  2754.  2763.  2765.  2775.  2781.  2781.  2786.  2788.
  2792.  2801.  2808.  2810.  2814.  2821.  2826.  2826.  2831.  2844.
  2844.  2852.  2852.  2857.  2863.  2867.  2875.  2878.  2878.  2880.
  2885.  2892.  2897.  2902.  2907.  2908.  2919.  2937.  2950.  2944.
  2951.  2951.  2957.  2963.  2965.  2970.  2971.  2973.  2978.  2980.]","3x = 15","0","return","NA","NA","return","1645","NA","NA","1645","LinregressResult(slope=1.9687509609435059, intercept=2249.8429323308269, rvalue=0.29493120625586733, pvalue=1.8048077454488887e-09, stderr=0.31971838837402267)","2","legacy","1.96875096094","1024","2","48000","-16","experiment","2794.0,2782.0,2778.0,2776.0,2774.0,2769.0,2765.0,2761.0,2759.0,2763.0,2763.0,2764.0,2759.0,2756.0,2762.0,2761.0,2762.0,2762.0,2762.0,2759.0,2758.0,2761.0,2759.0,2759.0,2758.0,2762.0,2761.0,2765.0,2760.0,2763.0,2767.0,2769.0,2766.0,2768.0,2768.0,2770.0,2771.0,2769.0,2773.0,2770.0,2771.0,2775.0,2772.0,2769.0,2768.0,2772.0,2772.0,2770.0,2771.0,2763.0,2758.0,2762.0,2756.0,2758.0,2752.0,2756.0,2756.0,2755.0,2749.0,2749.0,2744.0,2743.0,2744.0,2738.0,2739.0,2738.0,2734.0,2734.0,2735.0,2731.0,2735.0,2733.0,2732.0,2734.0,2728.0,2726.0,2729.0,2735.0,2734.0,2737.0,2739.0,2741.0,2742.0,2744.0,2750.0,2752.0,2758.0,2761.0,2761.0,2776.0,2776.0,2777.0,2782.0,2791.0,2790.0,2798.0,2809.0,2817.0,2818.0,2822.0,2827.0,2832.0,2839.0,2843.0,2848.0,2852.0,2854.0,2868.0,2870.0,2878.0,2882.0,2888.0,2891.0,2898.0,2901.0,2906.0,2909.0,2920.0,2926.0,2927.0,2928.0,2932.0,2934.0,2940.0,2936.0,2985.0,2997.0,2153.0,1111.0,0.0,0.0,0.0,0.0,0.0,0.0,0.0,0.0,0.0,0.0,0.0,0.0,0.0,296.0,442.0,0.0,1253.0,1978.0,2265.0,2561.0,2848.0,3055.0,3122.0,3120.0,3063.0,3018.0,3011.0,3013.0,3020.0,3018.0,3024.0,3024.0,3026.0,3025.0,3027.0,3028.0,3022.0,3019.0,3015.0,3008.0,3005.0,3006.0,2990.0,2994.0,2995.0,2982.0,2978.0,2964.0,2960.0,2959.0,2959.0,2953.0,2950.0,2946.0,2943.0,2933.0,2935.0,2931.0,2933.0,2929.0,2924.0,2917.0,2925.0,2920.0,2924.0,2922.0,2922.0,2920.0,2920.0,2918.0,2920.0,2921.0,2929.0,2932.0,2930.0,2928.0,2931.0,2934.0,2934.0,2939.0,3082.0,2323.0,987.0,0.0,0.0,0.0,0.0,0.0,0.0,0.0,0.0,0.0,0.0,0.0,0.0,0.0,0.0,0.0,0.0,0.0,0.0,0.0,0.0,0.0,0.0,1019.0,1287.0,2046.0,2341.0,2675.0,2972.0,3067.0,3108.0,3076.0,3010.0,2966.0,2960.0,2955.0,2943.0,2931.0,2922.0,2909.0,2899.0,2885.0,2872.0,2860.0,2849.0,2838.0,2826.0,2819.0,2811.0,2804.0,2791.0,2786.0,2775.0,2772.0,2771.0,2759.0,2756.0,2752.0,2751.0,2748.0,2744.0,2741.0,2739.0,2735.0,2733.0,2730.0,2730.0,2720.0,2723.0,2724.0,2719.0,2717.0,2716.0,2716.0,2721.0,2715.0,2713.0,2709.0,2712.0,2711.0,2707.0,2705.0,2702.0,2698.0,2700.0,2701.0,2690.0,2693.0,2692.0,2694.0,2692.0,2693.0,2690.0,2687.0,2691.0,2686.0,2686.0,2687.0,2685.0,2688.0,2689.0,2685.0,2687.0,2685.0,2680.0,2679.0,2684.0,2683.0,2682.0,2687.0,2683.0,2683.0,2683.0,2687.0,2687.0,2687.0,2701.0,2689.0,2691.0,2692.0,2696.0,2698.0,2697.0,2695.0,2697.0,2702.0,2706.0,2704.0,2710.0,2712.0,2714.0,2718.0,2720.0,2725.0,2734.0,2733.0,2737.0,2737.0,2745.0,2752.0,2750.0,2754.0,2763.0,2765.0,2775.0,2781.0,2781.0,2786.0,2788.0,2792.0,2801.0,2808.0,2810.0,2814.0,2821.0,2826.0,2826.0,2831.0,2844.0,2844.0,2852.0,2852.0,2857.0,2863.0,2867.0,2875.0,2878.0,2878.0,2880.0,2885.0,2892.0,2897.0,2902.0,2907.0,2908.0,2919.0,2937.0,2950.0,2944.0,2951.0,2951.0,2957.0,2963.0,2965.0,2970.0,2971.0,2973.0,2978.0,2980.0","21","odd","98612","103618","5006","70388","98617","NA","67226","95253","NA","66482","NA","NA","2327","97112","NA","98618","2489","NA","NA","NA","103917","NA","95809","NA","103618","NA","96749","NA","94733","NA","67226","4135","NA","NA","103618","98612","66483","95809","NA","Extended template","0","0","0","yes","1024"
"undefined","undefined","undefined","NA","undefined","black","yes","xpyriment","legacy","legacy","0","uniform","undefined","undefined","0","3","NA","0","3","NA","0","0","0","0","3","NA","3","0","0","NA","NA","3","NA","3","NA","3","NA","3","NA","3","NA","0","0","0","0","3","3","0","3","NA","10/11/18 13:35:37","A template containing a practice and an experimental phase","hard","yes","Experiment.osexp","C:\Users\EEGExp\Desktop","no","mono","no","18","no","white","no","Ok","yes","768","legacy","3","3","0","C:/Users/EEGExp/Desktop/subject-21.csv","xpyriment","Kafkaesque Koffka","3.2.5","yes","[ 2903.  2901.  2895.  2892.  2891.  2888.  2881.  2880.  2881.  2878.
  2872.  2871.  2875.  2870.  2864.  2859.  2857.  2854.  2857.  2853.
  2843.  2838.  2843.  2841.  2840.  2836.  2823.  2812.  2812.  2811.
  2807.  2806.  2811.  2806.  2803.  2803.  2802.  2801.  2802.  2804.
  2809.  2810.  2811.  2815.  2815.  2819.  2825.  2826.  2836.  2830.
  2837.  2842.  2845.  2847.  2851.  2854.  2853.  2859.  2856.  2858.
  2867.  2881.  2890.  2875.  2874.  2878.  2875.  2871.  2873.  2874.
  2876.  2873.  2873.  2873.  2872.  2875.  2872.  2872.  2873.  2874.
  2878.  2877.  2874.  2878.  2883.  2883.  2890.  2888.  2894.  2893.
  2892.  2908.  2908.  2915.  2913.  2915.  2915.  2924.  2925.  2928.
  2932.  2936.  2941.  2955.  2933.  2937.  2941.  2940.  2942.  2945.
  2940.  2948.  2951.  2948.  2952.  2954.  2957.  2959.  2963.  2962.
  2968.  2970.  2973.  2972.  2973.  2978.  2982.  2987.  2990.  2991.
  2993.  2993.  2999.  2997.  2999.  3005.  3007.  3011.  3016.  3020.
  3020.  3026.  3030.  3034.  3037.  3041.  3046.  3052.  3058.  3063.
  3062.  3066.  3069.  3076.  3073.  3080.  3085.  3088.  3087.  3089.
  3088.  3215.  3162.  2528.  1805.     0.     0.     0.     0.     0.
     0.     0.     0.     0.     0.     0.     0.     0.     0.     0.
     0.     0.     0.     0.     0.     0.     0.     0.     0.     0.
     0.     0.     0.   423.     0.  1195.  1924.  2248.  2521.  2813.
  3093.  3233.  3303.  3309.  3272.  3204.  3157.  3148.  3140.  3135.
  3127.  3118.  3113.  3098.  3086.  3077.  3072.  3063.  3058.  3056.
  3051.  3045.  3040.  3040.  3039.  3033.  3035.  3032.  3029.  3030.
  3026.  3024.  3018.  3012.  3013.  3004.  2996.  2982.  2981.  2974.
  2962.  2950.  2942.  2938.  2927.  2921.  2917.  2908.  2897.  2883.
  2876.  2874.  2865.  2858.  2849.  2850.  2847.  2845.  2840.  2836.
  2836.  2831.  2833.  2823.  2825.  2829.  2827.  2834.  2833.  2829.
  2835.  2831.  2829.  2836.  2838.  2835.  2840.  2849.  2846.  2848.
  2848.  2850.  2854.  2856.  2861.  2863.  2866.  2871.  2875.  2869.
  2871.  2871.  2879.  2878.  2884.  2882.  2888.  2892.  2890.  2891.
  2895.  2904.  2900.  2904.  2904.  2914.  2916.  2924.  2923.  2929.
  2932.  2930.  2940.  2932.  2940.  2954.  2955.  2958.  2964.  2969.
  2973.  2974.  2978.  2987.  2993.  2999.  3001.  3011.  3018.  3017.
  3032.  3030.  3032.  3047.  3052.  3052.  3055.  3063.  3065.  3066.
  3067.  3077.  3075.  3070.  3072.  3075.  3077.  3076.  3088.  3087.
  3088.  3086.  3089.  3083.  3086.  3086.  3091.  3093.  3091.  3095.
  3097.  3101.  3099.  3103.  3103.  3109.  3109.  3110.  3119.  3118.
  3126.  3122.  3125.  3123.  3124.  3129.  3129.  3141.  3140.  3152.
  3147.  3151.  3152.  3151.  3149.  3156.  3159.  3160.  3164.  3160.
  3169.  3172.  3168.  3174.  3176.  3175.  3178.  3179.  3192.  3193.]","7x - 3 = 18","0","return","NA","NA","return","1645","NA","NA","1645","LinregressResult(slope=0.28291433071456695, intercept=2466.4656766917292, rvalue=0.038763446045585272, pvalue=0.43944347722815646, stderr=0.36556490866159436)","2","legacy","0.282914330715","1024","2","48000","-16","experiment","2903.0,2901.0,2895.0,2892.0,2891.0,2888.0,2881.0,2880.0,2881.0,2878.0,2872.0,2871.0,2875.0,2870.0,2864.0,2859.0,2857.0,2854.0,2857.0,2853.0,2843.0,2838.0,2843.0,2841.0,2840.0,2836.0,2823.0,2812.0,2812.0,2811.0,2807.0,2806.0,2811.0,2806.0,2803.0,2803.0,2802.0,2801.0,2802.0,2804.0,2809.0,2810.0,2811.0,2815.0,2815.0,2819.0,2825.0,2826.0,2836.0,2830.0,2837.0,2842.0,2845.0,2847.0,2851.0,2854.0,2853.0,2859.0,2856.0,2858.0,2867.0,2881.0,2890.0,2875.0,2874.0,2878.0,2875.0,2871.0,2873.0,2874.0,2876.0,2873.0,2873.0,2873.0,2872.0,2875.0,2872.0,2872.0,2873.0,2874.0,2878.0,2877.0,2874.0,2878.0,2883.0,2883.0,2890.0,2888.0,2894.0,2893.0,2892.0,2908.0,2908.0,2915.0,2913.0,2915.0,2915.0,2924.0,2925.0,2928.0,2932.0,2936.0,2941.0,2955.0,2933.0,2937.0,2941.0,2940.0,2942.0,2945.0,2940.0,2948.0,2951.0,2948.0,2952.0,2954.0,2957.0,2959.0,2963.0,2962.0,2968.0,2970.0,2973.0,2972.0,2973.0,2978.0,2982.0,2987.0,2990.0,2991.0,2993.0,2993.0,2999.0,2997.0,2999.0,3005.0,3007.0,3011.0,3016.0,3020.0,3020.0,3026.0,3030.0,3034.0,3037.0,3041.0,3046.0,3052.0,3058.0,3063.0,3062.0,3066.0,3069.0,3076.0,3073.0,3080.0,3085.0,3088.0,3087.0,3089.0,3088.0,3215.0,3162.0,2528.0,1805.0,0.0,0.0,0.0,0.0,0.0,0.0,0.0,0.0,0.0,0.0,0.0,0.0,0.0,0.0,0.0,0.0,0.0,0.0,0.0,0.0,0.0,0.0,0.0,0.0,0.0,0.0,0.0,0.0,423.0,0.0,1195.0,1924.0,2248.0,2521.0,2813.0,3093.0,3233.0,3303.0,3309.0,3272.0,3204.0,3157.0,3148.0,3140.0,3135.0,3127.0,3118.0,3113.0,3098.0,3086.0,3077.0,3072.0,3063.0,3058.0,3056.0,3051.0,3045.0,3040.0,3040.0,3039.0,3033.0,3035.0,3032.0,3029.0,3030.0,3026.0,3024.0,3018.0,3012.0,3013.0,3004.0,2996.0,2982.0,2981.0,2974.0,2962.0,2950.0,2942.0,2938.0,2927.0,2921.0,2917.0,2908.0,2897.0,2883.0,2876.0,2874.0,2865.0,2858.0,2849.0,2850.0,2847.0,2845.0,2840.0,2836.0,2836.0,2831.0,2833.0,2823.0,2825.0,2829.0,2827.0,2834.0,2833.0,2829.0,2835.0,2831.0,2829.0,2836.0,2838.0,2835.0,2840.0,2849.0,2846.0,2848.0,2848.0,2850.0,2854.0,2856.0,2861.0,2863.0,2866.0,2871.0,2875.0,2869.0,2871.0,2871.0,2879.0,2878.0,2884.0,2882.0,2888.0,2892.0,2890.0,2891.0,2895.0,2904.0,2900.0,2904.0,2904.0,2914.0,2916.0,2924.0,2923.0,2929.0,2932.0,2930.0,2940.0,2932.0,2940.0,2954.0,2955.0,2958.0,2964.0,2969.0,2973.0,2974.0,2978.0,2987.0,2993.0,2999.0,3001.0,3011.0,3018.0,3017.0,3032.0,3030.0,3032.0,3047.0,3052.0,3052.0,3055.0,3063.0,3065.0,3066.0,3067.0,3077.0,3075.0,3070.0,3072.0,3075.0,3077.0,3076.0,3088.0,3087.0,3088.0,3086.0,3089.0,3083.0,3086.0,3086.0,3091.0,3093.0,3091.0,3095.0,3097.0,3101.0,3099.0,3103.0,3103.0,3109.0,3109.0,3110.0,3119.0,3118.0,3126.0,3122.0,3125.0,3123.0,3124.0,3129.0,3129.0,3141.0,3140.0,3152.0,3147.0,3151.0,3152.0,3151.0,3149.0,3156.0,3159.0,3160.0,3164.0,3160.0,3169.0,3172.0,3168.0,3174.0,3176.0,3175.0,3178.0,3179.0,3192.0,3193.0","21","odd","108420","113426","5006","70388","108425","NA","67226","104448","NA","66482","NA","NA","2327","106920","NA","108426","2489","NA","NA","NA","113725","NA","105048","NA","113426","NA","106558","NA","103933","NA","67226","4135","NA","NA","113426","108420","66483","105048","NA","Extended template","0","0","0","yes","1024"
"undefined","undefined","undefined","NA","undefined","black","yes","xpyriment","legacy","legacy","0","uniform","undefined","undefined","0","4","NA","0","4","NA","0","0","0","0","4","NA","4","0","0","NA","NA","4","NA","4","NA","4","NA","4","NA","4","NA","0","0","0","0","4","4","0","4","NA","10/11/18 13:35:37","A template containing a practice and an experimental phase","hard","yes","Experiment.osexp","C:\Users\EEGExp\Desktop","no","mono","no","18","no","white","no","Ok","yes","768","legacy","4","4","0","C:/Users/EEGExp/Desktop/subject-21.csv","xpyriment","Kafkaesque Koffka","3.2.5","yes","[    0.     0.     0.     0.     0.     0.     0.     0.     0.     0.
     0.     0.     0.     0.     0.     0.     0.     0.     0.     0.
   348.     0.     0.  1077.  1218.  1818.  2057.  2299.  2524.  2725.
  2971.  3082.  3168.  3185.  3174.  3146.  3104.  3061.  3044.  3037.
  3036.  3042.  3033.  3023.  3023.  3019.  3017.  3013.  3009.  3008.
  3006.  3006.  3003.  3003.  3001.  3000.  2999.  2999.  2997.  3000.
  2997.  2998.  3001.  2995.  2993.  2991.  2992.  2976.  2976.  2971.
  2970.  2965.  2958.  2958.  2955.  2957.  2951.  2956.  2954.  2950.
  2944.  2942.  2940.  2942.  2941.  2940.  2946.  2951.  2952.  2952.
  2948.  2944.  2948.  2946.  2943.  2937.  2939.  2941.  2931.  2935.
  2937.  2932.  2930.  2931.  2933.  2924.  2923.  2928.  2929.  2923.
  2920.  2918.  2914.  2915.  2916.  2916.  2915.  2914.  2918.  2911.
  2910.  2912.  3018.  2465.   927.     0.     0.     0.     0.     0.
     0.     0.     0.     0.     0.     0.     0.     0.     0.     0.
     0.     0.     0.     0.     0.     0.     0.     0.     0.     0.
     0.     0.   291.     0.     0.  1221.  1935.  2187.  2452.  2704.
  2927.  2967.  2990.  2981.  2921.  2840.  2802.  2787.  2780.  2760.
  2752.  2738.  2720.  2713.  2706.  2690.  2682.  2674.  2672.  2665.
  2658.  2655.  2650.  2649.  2647.  2642.  2644.  2644.  2643.  2639.
  2641.  2640.  2638.  2637.  2637.  2634.  2634.  2633.  2636.  2638.
  2633.  2636.  2631.  2628.  2631.  2640.  2642.  2644.  2637.  2633.
  2633.  2631.  2633.  2631.  2632.  2626.  2624.  2621.  2614.  2619.
  2612.  2613.  2608.  2607.  2602.  2606.  2601.  2607.  2602.  2609.
  2607.  2608.  2608.  2611.  2607.  2610.  2615.  2618.  2623.  2634.
  2632.  2639.  2643.  2648.  2653.  2655.  2657.  2669.  2675.  2681.
  2682.  2688.  2691.  2703.  2704.  2712.  2712.  2721.  2723.  2730.
  2739.  2747.  2746.  2758.  2768.  2768.  2779.  2781.  2788.  2798.
  2802.  2812.  2818.  2829.  2836.  2848.  2853.  2863.  2871.  2878.
  2883.  2899.  2908.  2913.  2922.  3034.  3013.  2347.  1351.     0.
     0.     0.     0.     0.     0.     0.     0.     0.     0.     0.
     0.     0.     0.     0.     0.     0.     0.     0.     0.     0.
     0.     0.     0.     0.     0.     0.     0.     0.   433.     0.
     0.  1093.  1265.  1860.  2121.  2362.  2532.  2763.  2993.  3158.
  3232.  3265.  3257.  3226.  3144.  3107.  3086.  3083.  3078.  3072.
  3069.  3067.  3059.  3057.  3060.  3060.  3054.  3052.  3049.  3053.
  3047.  3042.  3046.  3042.  3041.  3032.  3034.  3029.  3017.  3011.
  2999.  2994.  2990.  2981.  2956.  2952.  2936.  2933.  2913.  2898.
  2891.  2874.  2858.  2855.  2845.  2827.  2818.  2813.  2804.  2792.
  2787.  2781.  2784.  2779.  2769.  2771.  2757.  2752.  2750.  2749.
  2744.  2743.  2741.  2736.  2737.  2742.  2739.  2739.  2737.  2735.]","3x - 8 = 7","0","return","NA","NA","return","1645","NA","NA","1645","LinregressResult(slope=0.88050765942287135, intercept=2554.6207142857143, rvalue=0.1284158407422844, pvalue=0.01014252416089139, stderr=0.34084918039379014)","2","legacy","0.880507659423","1024","2","48000","-16","experiment","0.0,0.0,0.0,0.0,0.0,0.0,0.0,0.0,0.0,0.0,0.0,0.0,0.0,0.0,0.0,0.0,0.0,0.0,0.0,0.0,348.0,0.0,0.0,1077.0,1218.0,1818.0,2057.0,2299.0,2524.0,2725.0,2971.0,3082.0,3168.0,3185.0,3174.0,3146.0,3104.0,3061.0,3044.0,3037.0,3036.0,3042.0,3033.0,3023.0,3023.0,3019.0,3017.0,3013.0,3009.0,3008.0,3006.0,3006.0,3003.0,3003.0,3001.0,3000.0,2999.0,2999.0,2997.0,3000.0,2997.0,2998.0,3001.0,2995.0,2993.0,2991.0,2992.0,2976.0,2976.0,2971.0,2970.0,2965.0,2958.0,2958.0,2955.0,2957.0,2951.0,2956.0,2954.0,2950.0,2944.0,2942.0,2940.0,2942.0,2941.0,2940.0,2946.0,2951.0,2952.0,2952.0,2948.0,2944.0,2948.0,2946.0,2943.0,2937.0,2939.0,2941.0,2931.0,2935.0,2937.0,2932.0,2930.0,2931.0,2933.0,2924.0,2923.0,2928.0,2929.0,2923.0,2920.0,2918.0,2914.0,2915.0,2916.0,2916.0,2915.0,2914.0,2918.0,2911.0,2910.0,2912.0,3018.0,2465.0,927.0,0.0,0.0,0.0,0.0,0.0,0.0,0.0,0.0,0.0,0.0,0.0,0.0,0.0,0.0,0.0,0.0,0.0,0.0,0.0,0.0,0.0,0.0,0.0,0.0,0.0,0.0,0.0,291.0,0.0,0.0,1221.0,1935.0,2187.0,2452.0,2704.0,2927.0,2967.0,2990.0,2981.0,2921.0,2840.0,2802.0,2787.0,2780.0,2760.0,2752.0,2738.0,2720.0,2713.0,2706.0,2690.0,2682.0,2674.0,2672.0,2665.0,2658.0,2655.0,2650.0,2649.0,2647.0,2642.0,2644.0,2644.0,2643.0,2639.0,2641.0,2640.0,2638.0,2637.0,2637.0,2634.0,2634.0,2633.0,2636.0,2638.0,2633.0,2636.0,2631.0,2628.0,2631.0,2640.0,2642.0,2644.0,2637.0,2633.0,2633.0,2631.0,2633.0,2631.0,2632.0,2626.0,2624.0,2621.0,2614.0,2619.0,2612.0,2613.0,2608.0,2607.0,2602.0,2606.0,2601.0,2607.0,2602.0,2609.0,2607.0,2608.0,2608.0,2611.0,2607.0,2610.0,2615.0,2618.0,2623.0,2634.0,2632.0,2639.0,2643.0,2648.0,2653.0,2655.0,2657.0,2669.0,2675.0,2681.0,2682.0,2688.0,2691.0,2703.0,2704.0,2712.0,2712.0,2721.0,2723.0,2730.0,2739.0,2747.0,2746.0,2758.0,2768.0,2768.0,2779.0,2781.0,2788.0,2798.0,2802.0,2812.0,2818.0,2829.0,2836.0,2848.0,2853.0,2863.0,2871.0,2878.0,2883.0,2899.0,2908.0,2913.0,2922.0,3034.0,3013.0,2347.0,1351.0,0.0,0.0,0.0,0.0,0.0,0.0,0.0,0.0,0.0,0.0,0.0,0.0,0.0,0.0,0.0,0.0,0.0,0.0,0.0,0.0,0.0,0.0,0.0,0.0,0.0,0.0,0.0,0.0,0.0,433.0,0.0,0.0,1093.0,1265.0,1860.0,2121.0,2362.0,2532.0,2763.0,2993.0,3158.0,3232.0,3265.0,3257.0,3226.0,3144.0,3107.0,3086.0,3083.0,3078.0,3072.0,3069.0,3067.0,3059.0,3057.0,3060.0,3060.0,3054.0,3052.0,3049.0,3053.0,3047.0,3042.0,3046.0,3042.0,3041.0,3032.0,3034.0,3029.0,3017.0,3011.0,2999.0,2994.0,2990.0,2981.0,2956.0,2952.0,2936.0,2933.0,2913.0,2898.0,2891.0,2874.0,2858.0,2855.0,2845.0,2827.0,2818.0,2813.0,2804.0,2792.0,2787.0,2781.0,2784.0,2779.0,2769.0,2771.0,2757.0,2752.0,2750.0,2749.0,2744.0,2743.0,2741.0,2736.0,2737.0,2742.0,2739.0,2739.0,2737.0,2735.0","21","odd","118680","123687","5007","70388","118686","NA","67226","114254","NA","66482","NA","NA","2327","117180","NA","118687","2489","NA","NA","NA","123986","NA","114801","NA","123687","NA","116821","NA","113739","NA","67226","4135","NA","NA","123687","118680","66483","114801","NA","Extended template","0","0","0","yes","1024"
"undefined","undefined","undefined","NA","undefined","black","yes","xpyriment","legacy","legacy","0","uniform","undefined","undefined","0","5","NA","0","5","NA","0","0","0","0","5","NA","5","0","0","NA","NA","5","NA","5","NA","5","NA","5","NA","5","NA","0","0","0","0","5","5","0","5","NA","10/11/18 13:35:37","A template containing a practice and an experimental phase","medium","yes","Experiment.osexp","C:\Users\EEGExp\Desktop","no","mono","no","18","no","white","no","Ok","yes","768","legacy","5","5","0","C:/Users/EEGExp/Desktop/subject-21.csv","xpyriment","Kafkaesque Koffka","3.2.5","yes","[ 3005.  2995.  2990.  2983.  2978.  2973.  2967.  2956.  2950.  2951.
  2941.  2933.  2926.  2918.  2906.  2901.  2892.  2885.  2876.  2871.
  2859.  2849.  2840.  2830.  2819.  2809.  2800.  2797.  2787.  2776.
  2768.  2759.  2754.  2738.  2740.  2727.  2722.  2712.  2709.  2701.
  2694.  2687.  2687.  2678.  2674.  2669.  2664.  2657.  2654.  2654.
  2648.  2644.  2642.  2640.  2634.  2634.  2631.  2633.  2633.  2629.
  2628.  2628.  2629.  2631.  2629.  2631.  2723.  2293.  1077.     0.
     0.     0.     0.     0.     0.     0.     0.     0.     0.     0.
     0.     0.     0.     0.     0.     0.     0.     0.     0.     0.
     0.     0.     0.   378.     0.   945.  1183.  1792.  2032.  2238.
  2497.  2736.  2851.  2879.  2816.  2774.  2723.  2708.  2706.  2695.
  2682.  2671.  2659.  2638.  2635.  2621.  2609.  2606.  2602.  2590.
  2582.  2583.  2578.  2576.  2571.  2563.  2556.  2551.  2551.  2547.
  2548.  2547.  2544.  2540.  2542.  2544.  2539.  2541.  2542.  2538.
  2536.  2537.  2536.  2538.  2535.  2538.  2534.  2540.  2539.  2535.
  2540.  2537.  2538.  2540.  2541.  2538.  2534.  2539.  2537.  2538.
  2544.  2544.  2541.  2548.  2547.  2545.  2546.  2546.  2549.  2551.
  2557.  2557.  2559.  2563.  2563.  2560.  2561.  2562.  2559.  2560.
  2563.  2565.  2570.  2577.  2574.  2573.  2575.  2579.  2580.  2584.
  2583.  2581.  2586.  2589.  2589.  2594.  2592.  2594.  2593.  2597.
  2600.  2604.  2613.  2614.  2619.  2621.  2623.  2624.  2631.  2624.
  2630.  2632.  2637.  2638.  2644.  2647.  2650.  2653.  2657.  2661.
  2657.  2664.  2665.  2661.  2662.  2663.  2663.  2668.  2666.  2666.
  2666.  2666.  2671.  2671.  2674.  2672.  2671.  2671.  2666.  2668.
  2671.  2675.  2676.  2678.  2664.  2669.  2672.  2675.  2679.  2671.
  2671.  2677.  2683.  2683.  2683.  2690.  2682.  2686.  2687.  2694.
  2696.  2707.  2709.  2710.  2717.  2803.  2314.   934.     0.     0.
     0.     0.     0.     0.     0.     0.     0.     0.     0.     0.
     0.     0.     0.     0.     0.     0.     0.     0.     0.     0.
   333.     0.     0.  1081.  1706.  1946.  2207.  2409.  2624.  2827.
  2880.  2904.  2848.  2795.  2774.  2767.  2757.  2744.  2737.  2730.
  2719.  2713.  2695.  2687.  2679.  2669.  2658.  2651.  2638.  2636.
  2627.  2624.  2617.  2610.  2608.  2604.  2603.  2596.  2594.  2588.
  2591.  2587.  2582.  2579.  2574.  2574.  2565.  2562.  2557.  2553.
  2554.  2549.  2539.  2536.  2533.  2526.  2525.  2519.  2516.  2513.
  2509.  2503.  2496.  2492.  2486.  2485.  2488.  2483.  2478.  2473.
  2476.  2470.  2464.  2467.  2454.  2457.  2454.  2452.  2451.  2452.
  2451.  2453.  2453.  2451.  2451.  2450.  2450.  2452.  2452.  2454.
  2453.  2452.  2454.  2453.  2456.  2464.  2462.  2466.  2465.  2467.
  2472.  2470.  2473.  2474.  2478.  2482.  2482.  2487.  2493.  2489.]","2x = 6","0","return","NA","NA","return","1645","NA","NA","1645","LinregressResult(slope=1.3816287289295557, intercept=1919.2959398496241, rvalue=0.13634390586940645, pvalue=0.0063121567050484668, stderr=0.50319857491298403)","2","legacy","1.38162872893","1024","2","48000","-16","experiment","3005.0,2995.0,2990.0,2983.0,2978.0,2973.0,2967.0,2956.0,2950.0,2951.0,2941.0,2933.0,2926.0,2918.0,2906.0,2901.0,2892.0,2885.0,2876.0,2871.0,2859.0,2849.0,2840.0,2830.0,2819.0,2809.0,2800.0,2797.0,2787.0,2776.0,2768.0,2759.0,2754.0,2738.0,2740.0,2727.0,2722.0,2712.0,2709.0,2701.0,2694.0,2687.0,2687.0,2678.0,2674.0,2669.0,2664.0,2657.0,2654.0,2654.0,2648.0,2644.0,2642.0,2640.0,2634.0,2634.0,2631.0,2633.0,2633.0,2629.0,2628.0,2628.0,2629.0,2631.0,2629.0,2631.0,2723.0,2293.0,1077.0,0.0,0.0,0.0,0.0,0.0,0.0,0.0,0.0,0.0,0.0,0.0,0.0,0.0,0.0,0.0,0.0,0.0,0.0,0.0,0.0,0.0,0.0,0.0,0.0,378.0,0.0,945.0,1183.0,1792.0,2032.0,2238.0,2497.0,2736.0,2851.0,2879.0,2816.0,2774.0,2723.0,2708.0,2706.0,2695.0,2682.0,2671.0,2659.0,2638.0,2635.0,2621.0,2609.0,2606.0,2602.0,2590.0,2582.0,2583.0,2578.0,2576.0,2571.0,2563.0,2556.0,2551.0,2551.0,2547.0,2548.0,2547.0,2544.0,2540.0,2542.0,2544.0,2539.0,2541.0,2542.0,2538.0,2536.0,2537.0,2536.0,2538.0,2535.0,2538.0,2534.0,2540.0,2539.0,2535.0,2540.0,2537.0,2538.0,2540.0,2541.0,2538.0,2534.0,2539.0,2537.0,2538.0,2544.0,2544.0,2541.0,2548.0,2547.0,2545.0,2546.0,2546.0,2549.0,2551.0,2557.0,2557.0,2559.0,2563.0,2563.0,2560.0,2561.0,2562.0,2559.0,2560.0,2563.0,2565.0,2570.0,2577.0,2574.0,2573.0,2575.0,2579.0,2580.0,2584.0,2583.0,2581.0,2586.0,2589.0,2589.0,2594.0,2592.0,2594.0,2593.0,2597.0,2600.0,2604.0,2613.0,2614.0,2619.0,2621.0,2623.0,2624.0,2631.0,2624.0,2630.0,2632.0,2637.0,2638.0,2644.0,2647.0,2650.0,2653.0,2657.0,2661.0,2657.0,2664.0,2665.0,2661.0,2662.0,2663.0,2663.0,2668.0,2666.0,2666.0,2666.0,2666.0,2671.0,2671.0,2674.0,2672.0,2671.0,2671.0,2666.0,2668.0,2671.0,2675.0,2676.0,2678.0,2664.0,2669.0,2672.0,2675.0,2679.0,2671.0,2671.0,2677.0,2683.0,2683.0,2683.0,2690.0,2682.0,2686.0,2687.0,2694.0,2696.0,2707.0,2709.0,2710.0,2717.0,2803.0,2314.0,934.0,0.0,0.0,0.0,0.0,0.0,0.0,0.0,0.0,0.0,0.0,0.0,0.0,0.0,0.0,0.0,0.0,0.0,0.0,0.0,0.0,0.0,0.0,333.0,0.0,0.0,1081.0,1706.0,1946.0,2207.0,2409.0,2624.0,2827.0,2880.0,2904.0,2848.0,2795.0,2774.0,2767.0,2757.0,2744.0,2737.0,2730.0,2719.0,2713.0,2695.0,2687.0,2679.0,2669.0,2658.0,2651.0,2638.0,2636.0,2627.0,2624.0,2617.0,2610.0,2608.0,2604.0,2603.0,2596.0,2594.0,2588.0,2591.0,2587.0,2582.0,2579.0,2574.0,2574.0,2565.0,2562.0,2557.0,2553.0,2554.0,2549.0,2539.0,2536.0,2533.0,2526.0,2525.0,2519.0,2516.0,2513.0,2509.0,2503.0,2496.0,2492.0,2486.0,2485.0,2488.0,2483.0,2478.0,2473.0,2476.0,2470.0,2464.0,2467.0,2454.0,2457.0,2454.0,2452.0,2451.0,2452.0,2451.0,2453.0,2453.0,2451.0,2451.0,2450.0,2450.0,2452.0,2452.0,2454.0,2453.0,2452.0,2454.0,2453.0,2456.0,2464.0,2462.0,2466.0,2465.0,2467.0,2472.0,2470.0,2473.0,2474.0,2478.0,2482.0,2482.0,2487.0,2493.0,2489.0","21","odd","128833","133839","5006","70388","128838","NA","67226","124519","NA","66482","NA","NA","2327","127333","NA","128839","2489","NA","NA","NA","134138","NA","125069","NA","133839","NA","126971","NA","124003","NA","67226","4135","NA","NA","133839","128833","66483","125069","NA","Extended template","0","0","0","yes","1024"
"undefined","undefined","undefined","NA","undefined","black","yes","xpyriment","legacy","legacy","0","uniform","undefined","undefined","0","6","NA","0","6","NA","0","0","0","0","6","NA","6","0","0","NA","NA","6","NA","6","NA","6","NA","6","NA","6","NA","0","0","0","0","6","6","0","6","NA","10/11/18 13:35:37","A template containing a practice and an experimental phase","medium","yes","Experiment.osexp","C:\Users\EEGExp\Desktop","no","mono","no","18","no","white","no","Ok","yes","768","legacy","6","6","0","C:/Users/EEGExp/Desktop/subject-21.csv","xpyriment","Kafkaesque Koffka","3.2.5","yes","[ 2956.  2950.  2948.  2940.  2932.  2927.  2921.  2919.  2915.  2905.
  2895.  2894.  2888.  2884.  2878.  2869.  2868.  2855.  2851.  2847.
  2843.  2834.  2833.  2826.  2811.  2804.  2796.  2784.  2771.  2769.
  2755.  2745.  2724.  2721.  2712.  2696.  2689.  2673.  2661.  2660.
  2643.  2638.  2624.  2620.  2618.  2619.  2615.  2606.  2601.  2600.
  2599.  2594.  2598.  2595.  2604.  2609.  2605.  2604.  2607.  2607.
  2613.  2615.  2617.  2621.  2618.  2623.  2629.  2629.  2631.  2632.
  2623.  2627.  2626.  2624.  2628.  2625.  2614.  2615.  2615.  2615.
  2613.  2611.  2611.  2605.  2602.  2595.  2595.  2595.  2587.  2580.
  2579.  2577.  2573.  2575.  2572.  2569.  2564.  2564.  2565.  2565.
  2554.  2547.  2549.  2550.  2553.  2551.  2553.  2551.  2549.  2551.
  2551.  2549.  2549.  2546.  2548.  2550.  2549.  2547.  2548.  2550.
  2545.  2548.  2553.  2560.  2654.  2026.   983.     0.     0.     0.
     0.     0.     0.     0.     0.     0.     0.     0.     0.     0.
     0.     0.     0.     0.     0.     0.     0.     0.   345.     0.
   937.  1197.  1850.  2171.  2476.  2701.  2750.  2709.  2666.  2648.
  2646.  2644.  2642.  2640.  2640.  2635.  2633.  2635.  2630.  2624.
  2619.  2615.  2602.  2600.  2601.  2597.  2597.  2592.  2590.  2590.
  2584.  2587.  2584.  2584.  2583.  2587.  2592.  2592.  2587.  2583.
  2591.  2587.  2585.  2590.  2594.  2584.  2584.  2587.  2588.  2588.
  2593.  2593.  2594.  2599.  2605.  2603.  2611.  2617.  2621.  2623.
  2631.  2627.  2635.  2645.  2652.  2661.  2668.  2669.  2679.  2683.
  2690.  2701.  2709.  2714.  2714.  2720.  2724.  2732.  2734.  2747.
  2749.  2756.  2757.  2768.  2769.  2776.  2775.  2778.  2784.  2787.
  2794.  2797.  2811.  2808.  2810.  2815.  2822.  2827.  2834.  2837.
  2844.  2850.  2852.  2856.  2855.  2870.  2875.  2874.  2880.  2884.
  2893.  2899.  2904.  2908.  2911.  2920.  2932.  2932.  2938.  2946.
  2952.  2959.  2958.  2972.  2974.  2983.  2992.  3000.  3004.  3011.
  3017.  3025.  3026.  3043.  3043.  3056.  3057.  3069.  3075.  3085.
  3090.  3093.  3110.  3116.  3115.  3121.  3135.  3137.  3149.  3161.
  3158.  3248.  2913.  1237.     0.     0.     0.     0.     0.     0.
     0.     0.     0.     0.     0.     0.     0.     0.     0.     0.
     0.   660.     0.  1175.  1462.  2188.  2489.  2749.  2995.  3275.
  3441.  3498.  3495.  3480.  3488.  3476.  3454.  3444.  3441.  3439.
  3440.  3443.  3444.  3450.  3446.  3454.  3452.  3451.  3454.  3453.
  3453.  3459.  3455.  3456.  3458.  3455.  3452.  3458.  3453.  3451.
  3451.  3455.  3456.  3456.  3451.  3454.  3449.  3451.  3444.  3444.
  3444.  3438.  3441.  3442.  3436.  3431.  3437.  3430.  3432.  3425.
  3426.  3427.  3422.  3417.  3422.  3424.  3412.  3413.  3416.  3414.
  3411.  3416.  3445.  3541.  2265.     0.     0.     0.     0.     0.]","6x = 12","0","return","NA","NA","return","1645","NA","NA","1645","LinregressResult(slope=0.017268857930362036, intercept=2260.2225939849623, rvalue=0.0022423630064678335, pvalue=0.96434088065400159, stderr=0.38602467739963975)","2","legacy","0.0172688579304","1024","2","48000","-16","experiment","2956.0,2950.0,2948.0,2940.0,2932.0,2927.0,2921.0,2919.0,2915.0,2905.0,2895.0,2894.0,2888.0,2884.0,2878.0,2869.0,2868.0,2855.0,2851.0,2847.0,2843.0,2834.0,2833.0,2826.0,2811.0,2804.0,2796.0,2784.0,2771.0,2769.0,2755.0,2745.0,2724.0,2721.0,2712.0,2696.0,2689.0,2673.0,2661.0,2660.0,2643.0,2638.0,2624.0,2620.0,2618.0,2619.0,2615.0,2606.0,2601.0,2600.0,2599.0,2594.0,2598.0,2595.0,2604.0,2609.0,2605.0,2604.0,2607.0,2607.0,2613.0,2615.0,2617.0,2621.0,2618.0,2623.0,2629.0,2629.0,2631.0,2632.0,2623.0,2627.0,2626.0,2624.0,2628.0,2625.0,2614.0,2615.0,2615.0,2615.0,2613.0,2611.0,2611.0,2605.0,2602.0,2595.0,2595.0,2595.0,2587.0,2580.0,2579.0,2577.0,2573.0,2575.0,2572.0,2569.0,2564.0,2564.0,2565.0,2565.0,2554.0,2547.0,2549.0,2550.0,2553.0,2551.0,2553.0,2551.0,2549.0,2551.0,2551.0,2549.0,2549.0,2546.0,2548.0,2550.0,2549.0,2547.0,2548.0,2550.0,2545.0,2548.0,2553.0,2560.0,2654.0,2026.0,983.0,0.0,0.0,0.0,0.0,0.0,0.0,0.0,0.0,0.0,0.0,0.0,0.0,0.0,0.0,0.0,0.0,0.0,0.0,0.0,0.0,0.0,345.0,0.0,937.0,1197.0,1850.0,2171.0,2476.0,2701.0,2750.0,2709.0,2666.0,2648.0,2646.0,2644.0,2642.0,2640.0,2640.0,2635.0,2633.0,2635.0,2630.0,2624.0,2619.0,2615.0,2602.0,2600.0,2601.0,2597.0,2597.0,2592.0,2590.0,2590.0,2584.0,2587.0,2584.0,2584.0,2583.0,2587.0,2592.0,2592.0,2587.0,2583.0,2591.0,2587.0,2585.0,2590.0,2594.0,2584.0,2584.0,2587.0,2588.0,2588.0,2593.0,2593.0,2594.0,2599.0,2605.0,2603.0,2611.0,2617.0,2621.0,2623.0,2631.0,2627.0,2635.0,2645.0,2652.0,2661.0,2668.0,2669.0,2679.0,2683.0,2690.0,2701.0,2709.0,2714.0,2714.0,2720.0,2724.0,2732.0,2734.0,2747.0,2749.0,2756.0,2757.0,2768.0,2769.0,2776.0,2775.0,2778.0,2784.0,2787.0,2794.0,2797.0,2811.0,2808.0,2810.0,2815.0,2822.0,2827.0,2834.0,2837.0,2844.0,2850.0,2852.0,2856.0,2855.0,2870.0,2875.0,2874.0,2880.0,2884.0,2893.0,2899.0,2904.0,2908.0,2911.0,2920.0,2932.0,2932.0,2938.0,2946.0,2952.0,2959.0,2958.0,2972.0,2974.0,2983.0,2992.0,3000.0,3004.0,3011.0,3017.0,3025.0,3026.0,3043.0,3043.0,3056.0,3057.0,3069.0,3075.0,3085.0,3090.0,3093.0,3110.0,3116.0,3115.0,3121.0,3135.0,3137.0,3149.0,3161.0,3158.0,3248.0,2913.0,1237.0,0.0,0.0,0.0,0.0,0.0,0.0,0.0,0.0,0.0,0.0,0.0,0.0,0.0,0.0,0.0,0.0,0.0,660.0,0.0,1175.0,1462.0,2188.0,2489.0,2749.0,2995.0,3275.0,3441.0,3498.0,3495.0,3480.0,3488.0,3476.0,3454.0,3444.0,3441.0,3439.0,3440.0,3443.0,3444.0,3450.0,3446.0,3454.0,3452.0,3451.0,3454.0,3453.0,3453.0,3459.0,3455.0,3456.0,3458.0,3455.0,3452.0,3458.0,3453.0,3451.0,3451.0,3455.0,3456.0,3456.0,3451.0,3454.0,3449.0,3451.0,3444.0,3444.0,3444.0,3438.0,3441.0,3442.0,3436.0,3431.0,3437.0,3430.0,3432.0,3425.0,3426.0,3427.0,3422.0,3417.0,3422.0,3424.0,3412.0,3413.0,3416.0,3414.0,3411.0,3416.0,3445.0,3541.0,2265.0,0.0,0.0,0.0,0.0,0.0","21","odd","138856","143863","5007","70388","138861","NA","67226","134666","NA","66482","NA","NA","2327","137356","NA","138862","2489","NA","NA","NA","144162","NA","135216","NA","143863","NA","136997","NA","134153","NA","67226","4135","NA","NA","143863","138856","66483","135215","NA","Extended template","0","0","0","yes","1024"
"undefined","undefined","undefined","NA","undefined","black","yes","xpyriment","legacy","legacy","0","uniform","undefined","undefined","0","7","NA","0","7","NA","0","0","0","0","7","NA","7","0","0","NA","NA","7","NA","7","NA","7","NA","7","NA","7","NA","0","0","0","0","7","7","0","7","NA","10/11/18 13:35:37","A template containing a practice and an experimental phase","easy","yes","Experiment.osexp","C:\Users\EEGExp\Desktop","no","mono","no","18","no","white","no","Ok","yes","768","legacy","7","7","0","C:/Users/EEGExp/Desktop/subject-21.csv","xpyriment","Kafkaesque Koffka","3.2.5","yes","[ 3259.  3263.  3260.  3260.  3266.  3269.  3269.  3271.  3274.  3275.
  3273.  3277.  3281.  3288.  3290.  3299.  3302.  3305.  3314.  3321.
  3327.  3331.  3330.  3335.  3348.  3349.  3354.  3362.  3364.  3368.
  3376.  3370.  3371.  3383.  3385.  3391.  3393.  3391.  3392.  3390.
  3396.  3406.  3403.  3403.  3406.  3410.  3404.  3408.  3410.  3416.
  3417.  3421.  3426.  3431.  3431.  3433.  3436.  3440.  3447.  3449.
  3450.  3454.  3458.  3460.  3463.  3465.  3473.  3473.  3473.  3479.
  3480.  3481.  3479.  3493.  3611.  3000.  1232.     0.     0.     0.
     0.     0.     0.     0.     0.     0.     0.     0.     0.     0.
     0.     0.     0.     0.     0.     0.     0.     0.     0.     0.
     0.  1312.  1609.  2391.  2689.  2942.  3196.  3468.  3628.  3665.
  3623.  3610.  3529.  3472.  3444.  3421.  3411.  3392.  3373.  3355.
  3336.  3316.  3311.  3295.  3283.  3268.  3251.  3241.  3235.  3224.
  3221.  3211.  3215.  3210.  3201.  3203.  3201.  3198.  3197.  3192.
  3188.  3187.  3185.  3181.  3176.  3176.  3179.  3177.  3174.  3172.
  3167.  3161.  3159.  3154.  3157.  3151.  3148.  3144.  3140.  3140.
  3131.  3129.  3129.  3125.  3123.  3117.  3111.  3102.  3102.  3099.
  3096.  3090.  3086.  3083.  3076.  3069.  3068.  3057.  3054.  3046.
  3044.  3042.  3039.  3038.  3036.  3037.  3036.  3035.  3032.  3025.
  3027.  3029.  3035.  3033.  3036.  3050.  3050.  3057.  3064.  3067.
  3072.  3076.  3086.  3091.  3101.  3108.  3110.  3125.  3127.  3135.
  3141.  3147.  3154.  3158.  3170.  3177.  3183.  3191.  3202.  3206.
  3214.  3221.  3224.  3239.  3246.  3253.  3259.  3267.  3271.  3276.
  3277.  3281.  3287.  3293.  3295.  3294.  3295.  3302.  3441.  3220.
  1932.     0.     0.     0.     0.     0.     0.     0.     0.     0.
     0.     0.     0.     0.     0.     0.     0.     0.     0.     0.
     0.     0.  1276.  2002.  2247.  2561.  2807.  3086.  3365.  3462.
  3481.  3479.  3442.  3363.  3350.  3354.  3348.  3343.  3339.  3337.
  3335.  3333.  3331.  3330.  3335.  3334.  3335.  3332.  3332.  3334.
  3333.  3334.  3339.  3340.  3340.  3347.  3349.  3355.  3353.  3355.
  3361.  3365.  3365.  3370.  3372.  3376.  3384.  3387.  3385.  3391.
  3397.  3398.  3403.  3405.  3406.  3412.  3411.  3411.  3410.  3416.
  3417.  3413.  3413.  3415.  3416.  3411.  3411.  3412.  3409.  3409.
  3407.  3403.  3398.  3396.  3394.  3388.  3391.  3378.  3380.  3379.
  3375.  3370.  3369.  3361.  3359.  3360.  3359.  3354.  3356.  3356.
  3358.  3357.  3354.  3356.  3358.  3361.  3358.  3363.  3364.  3371.
  3375.  3378.  3382.  3389.  3389.  3388.  3396.  3401.  3409.  3412.
  3421.  3426.  3434.  3437.  3443.  3453.  3459.  3469.  3481.  3487.
  3496.  3505.  3509.  3516.  3529.  3536.  3546.  3558.  3566.  3576.
  3587.  3596.  3607.  3613.  3628.  3638.  3646.  3659.  3672.  3681.]","2 + 4","0","return","NA","NA","return","1645","NA","NA","1645","LinregressResult(slope=0.83685860536628354, intercept=2327.95484962406, rvalue=0.09896271348512771, pvalue=0.047937974553698914, stderr=0.42179537740498679)","2","legacy","0.836858605366","1024","2","48000","-16","experiment","3259.0,3263.0,3260.0,3260.0,3266.0,3269.0,3269.0,3271.0,3274.0,3275.0,3273.0,3277.0,3281.0,3288.0,3290.0,3299.0,3302.0,3305.0,3314.0,3321.0,3327.0,3331.0,3330.0,3335.0,3348.0,3349.0,3354.0,3362.0,3364.0,3368.0,3376.0,3370.0,3371.0,3383.0,3385.0,3391.0,3393.0,3391.0,3392.0,3390.0,3396.0,3406.0,3403.0,3403.0,3406.0,3410.0,3404.0,3408.0,3410.0,3416.0,3417.0,3421.0,3426.0,3431.0,3431.0,3433.0,3436.0,3440.0,3447.0,3449.0,3450.0,3454.0,3458.0,3460.0,3463.0,3465.0,3473.0,3473.0,3473.0,3479.0,3480.0,3481.0,3479.0,3493.0,3611.0,3000.0,1232.0,0.0,0.0,0.0,0.0,0.0,0.0,0.0,0.0,0.0,0.0,0.0,0.0,0.0,0.0,0.0,0.0,0.0,0.0,0.0,0.0,0.0,0.0,0.0,0.0,1312.0,1609.0,2391.0,2689.0,2942.0,3196.0,3468.0,3628.0,3665.0,3623.0,3610.0,3529.0,3472.0,3444.0,3421.0,3411.0,3392.0,3373.0,3355.0,3336.0,3316.0,3311.0,3295.0,3283.0,3268.0,3251.0,3241.0,3235.0,3224.0,3221.0,3211.0,3215.0,3210.0,3201.0,3203.0,3201.0,3198.0,3197.0,3192.0,3188.0,3187.0,3185.0,3181.0,3176.0,3176.0,3179.0,3177.0,3174.0,3172.0,3167.0,3161.0,3159.0,3154.0,3157.0,3151.0,3148.0,3144.0,3140.0,3140.0,3131.0,3129.0,3129.0,3125.0,3123.0,3117.0,3111.0,3102.0,3102.0,3099.0,3096.0,3090.0,3086.0,3083.0,3076.0,3069.0,3068.0,3057.0,3054.0,3046.0,3044.0,3042.0,3039.0,3038.0,3036.0,3037.0,3036.0,3035.0,3032.0,3025.0,3027.0,3029.0,3035.0,3033.0,3036.0,3050.0,3050.0,3057.0,3064.0,3067.0,3072.0,3076.0,3086.0,3091.0,3101.0,3108.0,3110.0,3125.0,3127.0,3135.0,3141.0,3147.0,3154.0,3158.0,3170.0,3177.0,3183.0,3191.0,3202.0,3206.0,3214.0,3221.0,3224.0,3239.0,3246.0,3253.0,3259.0,3267.0,3271.0,3276.0,3277.0,3281.0,3287.0,3293.0,3295.0,3294.0,3295.0,3302.0,3441.0,3220.0,1932.0,0.0,0.0,0.0,0.0,0.0,0.0,0.0,0.0,0.0,0.0,0.0,0.0,0.0,0.0,0.0,0.0,0.0,0.0,0.0,0.0,0.0,1276.0,2002.0,2247.0,2561.0,2807.0,3086.0,3365.0,3462.0,3481.0,3479.0,3442.0,3363.0,3350.0,3354.0,3348.0,3343.0,3339.0,3337.0,3335.0,3333.0,3331.0,3330.0,3335.0,3334.0,3335.0,3332.0,3332.0,3334.0,3333.0,3334.0,3339.0,3340.0,3340.0,3347.0,3349.0,3355.0,3353.0,3355.0,3361.0,3365.0,3365.0,3370.0,3372.0,3376.0,3384.0,3387.0,3385.0,3391.0,3397.0,3398.0,3403.0,3405.0,3406.0,3412.0,3411.0,3411.0,3410.0,3416.0,3417.0,3413.0,3413.0,3415.0,3416.0,3411.0,3411.0,3412.0,3409.0,3409.0,3407.0,3403.0,3398.0,3396.0,3394.0,3388.0,3391.0,3378.0,3380.0,3379.0,3375.0,3370.0,3369.0,3361.0,3359.0,3360.0,3359.0,3354.0,3356.0,3356.0,3358.0,3357.0,3354.0,3356.0,3358.0,3361.0,3358.0,3363.0,3364.0,3371.0,3375.0,3378.0,3382.0,3389.0,3389.0,3388.0,3396.0,3401.0,3409.0,3412.0,3421.0,3426.0,3434.0,3437.0,3443.0,3453.0,3459.0,3469.0,3481.0,3487.0,3496.0,3505.0,3509.0,3516.0,3529.0,3536.0,3546.0,3558.0,3566.0,3576.0,3587.0,3596.0,3607.0,3613.0,3628.0,3638.0,3646.0,3659.0,3672.0,3681.0","21","odd","148404","153410","5006","70388","148409","NA","67226","144691","NA","66482","NA","NA","2327","146904","NA","148410","2489","NA","NA","NA","153709","NA","145242","NA","153410","NA","146543","NA","144176","NA","67226","4135","NA","NA","153410","148404","66483","145242","NA","Extended template","0","0","0","yes","1024"
"undefined","undefined","undefined","NA","undefined","black","yes","xpyriment","legacy","legacy","0","uniform","undefined","undefined","0","8","NA","0","8","NA","0","0","0","0","8","NA","8","0","0","NA","NA","8","NA","8","NA","8","NA","8","NA","8","NA","0","0","0","0","8","8","0","8","NA","10/11/18 13:35:37","A template containing a practice and an experimental phase","easy","yes","Experiment.osexp","C:\Users\EEGExp\Desktop","no","mono","no","18","no","white","no","Ok","yes","768","legacy","8","8","0","C:/Users/EEGExp/Desktop/subject-21.csv","xpyriment","Kafkaesque Koffka","3.2.5","yes","[ 3337.  3351.  3358.  3370.  3383.  3386.  3391.  3412.  2994.     0.
     0.     0.     0.     0.     0.     0.     0.     0.     0.     0.
     0.     0.     0.     0.     0.     0.     0.     0.     0.     0.
  1156.  1407.  2235.  2572.  2880.  3169.  3478.  3663.  3715.  3681.
  3667.  3604.  3563.  3559.  3556.  3543.  3533.  3524.  3515.  3499.
  3491.  3483.  3473.  3463.  3456.  3445.  3433.  3432.  3421.  3413.
  3412.  3410.  3408.  3398.  3396.  3393.  3383.  3379.  3375.  3375.
  3372.  3366.  3362.  3356.  3353.  3342.  3340.  3333.  3328.  3320.
  3316.  3312.  3305.  3302.  3291.  3287.  3285.  3276.  3269.  3263.
  3259.  3259.  3248.  3245.  3243.  3238.  3229.  3226.  3214.  3211.
  3210.  3210.  3204.  3196.  3194.  3186.  3185.  3181.  3173.  3171.
  3172.  3171.  3166.  3160.  3155.  3158.  3158.  3153.  3153.  3153.
  3149.  3149.  3146.  3144.  3141.  3139.  3140.  3143.  3138.  3139.
  3142.  3142.  3143.  3138.  3138.  3137.  3140.  3141.  3144.  3146.
  3150.  3153.  3152.  3152.  3155.  3168.  3173.  3174.  3177.  3181.
  3188.  3194.  3192.  3202.  3206.  3216.  3224.  3228.  3232.  3232.
  3236.  3242.  3240.  3250.  3254.  3261.  3263.  3266.  3264.  3271.
  3271.  3276.  3280.  3282.  3288.  3288.  3289.  3294.  3299.  3299.
  3303.  3306.  3310.  3311.  3312.  3311.  3312.  3313.  3317.  3319.
  3333.  3328.  3323.  3332.  3326.  3328.  3338.  3340.  3343.  3342.
  3346.  3351.  3348.  3355.  3355.  3350.  3355.  3349.  3352.  3353.
  3351.  3351.  3351.  3350.  3352.  3345.  3348.  3347.  3345.  3338.
  3336.  3332.  3332.  3324.  3324.  3322.  3322.  3319.  3317.  3316.
  3316.  3315.  3315.  3318.  3327.  3325.  3324.  3328.  3336.  3337.
  3343.  3345.  3348.  3359.  3365.  3371.  3375.  3378.  3387.  3396.
  3396.  3396.  3401.  3404.  3408.  3413.  3414.  3418.  3423.  3425.
  3424.  3429.  3432.  3434.  3440.  3437.  3439.  3445.  3445.  3441.
  3438.  3440.  3438.  3438.  3433.  3435.  3433.  3432.  3429.  3427.
  3426.  3426.  3414.  3413.  3415.  3410.  3409.  3405.  3408.  3403.
  3402.  3401.  3394.  3399.  3400.  3396.  3395.  3396.  3388.  3395.
  3394.  3391.  3389.  3389.  3390.  3391.  3388.  3392.  3394.  3395.
  3399.  3399.  3403.  3404.  3404.  3406.  3405.  3406.  3409.  3412.
  3411.  3413.  3407.  3411.  3412.  3412.  3414.  3414.  3410.  3402.
  3404.  3402.  3399.  3401.  3401.  3402.  3400.  3403.  3396.  3388.
  3383.  3381.  3372.  3365.  3357.  3344.  3334.  3308.  3296.  3280.
  3269.  3247.  3226.  3210.  3196.  3183.  3158.  3150.  3128.  3116.
  3096.  3081.  3072.  3061.  3044.  3036.  3026.  3012.  3006.  2989.
  2982.  2981.  2973.  2967.  2956.  2951.  2953.  2945.  2941.  2941.
  2952.  2824.  1162.     0.     0.     0.     0.     0.     0.     0.
     0.     0.   415.     0.     0.  1156.  1372.  2022.  2282.  2523.]","6 + 2","0","return","NA","NA","return","1645","NA","NA","1645","LinregressResult(slope=1.3500059062869143, intercept=2636.4363157894741, rvalue=0.14570450745992203, pvalue=0.0034938985846200274, stderr=0.45947460562786202)","2","legacy","1.35000590629","1024","2","48000","-16","experiment","3337.0,3351.0,3358.0,3370.0,3383.0,3386.0,3391.0,3412.0,2994.0,0.0,0.0,0.0,0.0,0.0,0.0,0.0,0.0,0.0,0.0,0.0,0.0,0.0,0.0,0.0,0.0,0.0,0.0,0.0,0.0,0.0,1156.0,1407.0,2235.0,2572.0,2880.0,3169.0,3478.0,3663.0,3715.0,3681.0,3667.0,3604.0,3563.0,3559.0,3556.0,3543.0,3533.0,3524.0,3515.0,3499.0,3491.0,3483.0,3473.0,3463.0,3456.0,3445.0,3433.0,3432.0,3421.0,3413.0,3412.0,3410.0,3408.0,3398.0,3396.0,3393.0,3383.0,3379.0,3375.0,3375.0,3372.0,3366.0,3362.0,3356.0,3353.0,3342.0,3340.0,3333.0,3328.0,3320.0,3316.0,3312.0,3305.0,3302.0,3291.0,3287.0,3285.0,3276.0,3269.0,3263.0,3259.0,3259.0,3248.0,3245.0,3243.0,3238.0,3229.0,3226.0,3214.0,3211.0,3210.0,3210.0,3204.0,3196.0,3194.0,3186.0,3185.0,3181.0,3173.0,3171.0,3172.0,3171.0,3166.0,3160.0,3155.0,3158.0,3158.0,3153.0,3153.0,3153.0,3149.0,3149.0,3146.0,3144.0,3141.0,3139.0,3140.0,3143.0,3138.0,3139.0,3142.0,3142.0,3143.0,3138.0,3138.0,3137.0,3140.0,3141.0,3144.0,3146.0,3150.0,3153.0,3152.0,3152.0,3155.0,3168.0,3173.0,3174.0,3177.0,3181.0,3188.0,3194.0,3192.0,3202.0,3206.0,3216.0,3224.0,3228.0,3232.0,3232.0,3236.0,3242.0,3240.0,3250.0,3254.0,3261.0,3263.0,3266.0,3264.0,3271.0,3271.0,3276.0,3280.0,3282.0,3288.0,3288.0,3289.0,3294.0,3299.0,3299.0,3303.0,3306.0,3310.0,3311.0,3312.0,3311.0,3312.0,3313.0,3317.0,3319.0,3333.0,3328.0,3323.0,3332.0,3326.0,3328.0,3338.0,3340.0,3343.0,3342.0,3346.0,3351.0,3348.0,3355.0,3355.0,3350.0,3355.0,3349.0,3352.0,3353.0,3351.0,3351.0,3351.0,3350.0,3352.0,3345.0,3348.0,3347.0,3345.0,3338.0,3336.0,3332.0,3332.0,3324.0,3324.0,3322.0,3322.0,3319.0,3317.0,3316.0,3316.0,3315.0,3315.0,3318.0,3327.0,3325.0,3324.0,3328.0,3336.0,3337.0,3343.0,3345.0,3348.0,3359.0,3365.0,3371.0,3375.0,3378.0,3387.0,3396.0,3396.0,3396.0,3401.0,3404.0,3408.0,3413.0,3414.0,3418.0,3423.0,3425.0,3424.0,3429.0,3432.0,3434.0,3440.0,3437.0,3439.0,3445.0,3445.0,3441.0,3438.0,3440.0,3438.0,3438.0,3433.0,3435.0,3433.0,3432.0,3429.0,3427.0,3426.0,3426.0,3414.0,3413.0,3415.0,3410.0,3409.0,3405.0,3408.0,3403.0,3402.0,3401.0,3394.0,3399.0,3400.0,3396.0,3395.0,3396.0,3388.0,3395.0,3394.0,3391.0,3389.0,3389.0,3390.0,3391.0,3388.0,3392.0,3394.0,3395.0,3399.0,3399.0,3403.0,3404.0,3404.0,3406.0,3405.0,3406.0,3409.0,3412.0,3411.0,3413.0,3407.0,3411.0,3412.0,3412.0,3414.0,3414.0,3410.0,3402.0,3404.0,3402.0,3399.0,3401.0,3401.0,3402.0,3400.0,3403.0,3396.0,3388.0,3383.0,3381.0,3372.0,3365.0,3357.0,3344.0,3334.0,3308.0,3296.0,3280.0,3269.0,3247.0,3226.0,3210.0,3196.0,3183.0,3158.0,3150.0,3128.0,3116.0,3096.0,3081.0,3072.0,3061.0,3044.0,3036.0,3026.0,3012.0,3006.0,2989.0,2982.0,2981.0,2973.0,2967.0,2956.0,2951.0,2953.0,2945.0,2941.0,2941.0,2952.0,2824.0,1162.0,0.0,0.0,0.0,0.0,0.0,0.0,0.0,0.0,0.0,415.0,0.0,0.0,1156.0,1372.0,2022.0,2282.0,2523.0","21","odd","159775","164781","5006","70388","159780","NA","67226","154238","NA","66482","NA","NA","2327","158275","NA","159781","2489","NA","NA","NA","165081","NA","154783","NA","164781","NA","157915","NA","153724","NA","67226","4135","NA","NA","164781","159775","66483","154783","NA","Extended template","0","0","0","yes","1024"
"undefined","undefined","undefined","NA","undefined","black","yes","xpyriment","legacy","legacy","0","uniform","undefined","undefined","0","9","NA","0","9","NA","0","0","0","0","9","NA","9","0","0","NA","NA","9","NA","9","NA","9","NA","9","NA","9","NA","0","0","0","0","9","9","0","9","NA","10/11/18 13:35:37","A template containing a practice and an experimental phase","hard","yes","Experiment.osexp","C:\Users\EEGExp\Desktop","no","mono","no","18","no","white","no","Ok","yes","768","legacy","9","9","0","C:/Users/EEGExp/Desktop/subject-21.csv","xpyriment","Kafkaesque Koffka","3.2.5","yes","[ 2956.  2951.  2947.  2940.  2929.  2923.  2916.  2929.  2920.  2900.
  2890.  2888.  2879.  2870.  2861.  2851.  2851.  2840.  2836.  2830.
  2836.  2833.  2832.  2826.  2820.  2815.  2818.  2813.  2814.  2812.
  2815.  2809.  2803.  2803.  2795.  2795.  2796.  2790.  2791.  2792.
  2790.  2787.  2789.  2787.  2786.  2790.  2791.  2792.  2789.  2792.
  2793.  2802.  2801.  2806.  2808.  2809.  2814.  2818.  2820.  2826.
  2829.  2838.  2836.  2838.  2839.  2843.  2850.  2856.  2867.  2866.
  2865.  2870.  2874.  2882.  2888.  2894.  2900.  2904.  2910.  2923.
  2928.  2936.  2940.  2950.  2958.  2968.  2973.  2985.  2988.  2993.
  2995.  3002.  3009.  3011.  3018.  3019.  3019.  3018.  3017.  3021.
  3020.  3020.  3018.  3013.  3011.  3012.  3015.  3021.  3048.  3043.
  3031.  3028.  3031.  3023.  3022.  3029.  3031.  3025.  3022.  3026.
  3026.  3028.  3026.  3031.  3031.  3040.  3047.  3048.  3049.  3057.
  3062.  3064.  3070.  3074.  3079.  3087.  3092.  3097.  3109.  3113.
  3124.  3135.  3138.  3144.  3149.  3158.  3169.  3177.  3181.  3186.
  3194.  3198.  3196.  3200.  3199.  3204.  3198.  3204.  3199.  3195.
  3199.  3188.  3184.  3185.  3178.  3170.  3163.  3151.  3150.  3135.
  3134.  3145.  2407.     0.     0.     0.     0.     0.     0.     0.
     0.     0.     0.     0.     0.     0.     0.     0.     0.     0.
     0.     0.     0.     0.     0.   376.     0.  1018.  1221.  1909.
  2211.  2443.  2683.  2889.  3103.  3218.  3213.  3180.  3137.  3088.
  3076.  3057.  3047.  3042.  3026.  3018.  3011.  3008.  2999.  2994.
  2990.  2985.  2977.  2977.  2975.  2974.  2971.  2975.  2979.  2980.
  2977.  2987.  2990.  3000.  3001.  3006.  3013.  3028.  3032.  3040.
  3045.  3049.  3060.  3067.  3076.  3083.  3087.  3092.  3098.  3102.
  3107.  3113.  3114.  3122.  3124.  3126.  3135.  3135.  3140.  3144.
  3146.  3153.  3151.  3153.  3150.  3153.  3157.  3155.  3162.  3162.
  3156.  3154.  3150.  3150.  3143.  3143.  3133.  3130.  3126.  3123.
  3120.  3113.  3112.  3107.  3103.  3102.  3094.  3090.  3088.  3087.
  3087.  3086.  3081.  3079.  3078.  3077.  3081.  3076.  3068.  3070.
  3071.  3072.  3077.  3074.  3075.  3074.  3074.  3087.  3089.  3093.
  3097.  3103.  3099.  3107.  3111.  3114.  3121.  3122.  3132.  3137.
  3140.  3150.  3151.  3157.  3160.  3166.  3176.  3187.  3187.  3190.
  3195.  3198.  3198.  3202.  3285.  3183.  2300.  1142.   488.     0.
     0.     0.     0.     0.     0.     0.     0.     0.     0.     0.
     0.     0.     0.     0.     0.     0.     0.     0.     0.     0.
     0.     0.     0.   418.     0.     0.  1222.  1900.  2143.  2394.
  2605.  2827.  3013.  3196.  3281.  3267.  3239.  3194.  3153.  3112.
  3090.  3072.  3060.  3046.  3036.  3018.  3003.  2994.  2978.  2967.
  2954.  2940.  2936.  2932.  2925.  2915.  2907.  2903.  2898.  2891.]","4x - 2 = 10","0","return","NA","NA","return","1645","NA","NA","1645","LinregressResult(slope=0.684244370277314, intercept=2859.7565037593986, rvalue=0.084143067110031958, pvalue=0.09284525111918969, stderr=0.40617059153687296)","2","legacy","0.684244370277","1024","2","48000","-16","experiment","2956.0,2951.0,2947.0,2940.0,2929.0,2923.0,2916.0,2929.0,2920.0,2900.0,2890.0,2888.0,2879.0,2870.0,2861.0,2851.0,2851.0,2840.0,2836.0,2830.0,2836.0,2833.0,2832.0,2826.0,2820.0,2815.0,2818.0,2813.0,2814.0,2812.0,2815.0,2809.0,2803.0,2803.0,2795.0,2795.0,2796.0,2790.0,2791.0,2792.0,2790.0,2787.0,2789.0,2787.0,2786.0,2790.0,2791.0,2792.0,2789.0,2792.0,2793.0,2802.0,2801.0,2806.0,2808.0,2809.0,2814.0,2818.0,2820.0,2826.0,2829.0,2838.0,2836.0,2838.0,2839.0,2843.0,2850.0,2856.0,2867.0,2866.0,2865.0,2870.0,2874.0,2882.0,2888.0,2894.0,2900.0,2904.0,2910.0,2923.0,2928.0,2936.0,2940.0,2950.0,2958.0,2968.0,2973.0,2985.0,2988.0,2993.0,2995.0,3002.0,3009.0,3011.0,3018.0,3019.0,3019.0,3018.0,3017.0,3021.0,3020.0,3020.0,3018.0,3013.0,3011.0,3012.0,3015.0,3021.0,3048.0,3043.0,3031.0,3028.0,3031.0,3023.0,3022.0,3029.0,3031.0,3025.0,3022.0,3026.0,3026.0,3028.0,3026.0,3031.0,3031.0,3040.0,3047.0,3048.0,3049.0,3057.0,3062.0,3064.0,3070.0,3074.0,3079.0,3087.0,3092.0,3097.0,3109.0,3113.0,3124.0,3135.0,3138.0,3144.0,3149.0,3158.0,3169.0,3177.0,3181.0,3186.0,3194.0,3198.0,3196.0,3200.0,3199.0,3204.0,3198.0,3204.0,3199.0,3195.0,3199.0,3188.0,3184.0,3185.0,3178.0,3170.0,3163.0,3151.0,3150.0,3135.0,3134.0,3145.0,2407.0,0.0,0.0,0.0,0.0,0.0,0.0,0.0,0.0,0.0,0.0,0.0,0.0,0.0,0.0,0.0,0.0,0.0,0.0,0.0,0.0,0.0,0.0,376.0,0.0,1018.0,1221.0,1909.0,2211.0,2443.0,2683.0,2889.0,3103.0,3218.0,3213.0,3180.0,3137.0,3088.0,3076.0,3057.0,3047.0,3042.0,3026.0,3018.0,3011.0,3008.0,2999.0,2994.0,2990.0,2985.0,2977.0,2977.0,2975.0,2974.0,2971.0,2975.0,2979.0,2980.0,2977.0,2987.0,2990.0,3000.0,3001.0,3006.0,3013.0,3028.0,3032.0,3040.0,3045.0,3049.0,3060.0,3067.0,3076.0,3083.0,3087.0,3092.0,3098.0,3102.0,3107.0,3113.0,3114.0,3122.0,3124.0,3126.0,3135.0,3135.0,3140.0,3144.0,3146.0,3153.0,3151.0,3153.0,3150.0,3153.0,3157.0,3155.0,3162.0,3162.0,3156.0,3154.0,3150.0,3150.0,3143.0,3143.0,3133.0,3130.0,3126.0,3123.0,3120.0,3113.0,3112.0,3107.0,3103.0,3102.0,3094.0,3090.0,3088.0,3087.0,3087.0,3086.0,3081.0,3079.0,3078.0,3077.0,3081.0,3076.0,3068.0,3070.0,3071.0,3072.0,3077.0,3074.0,3075.0,3074.0,3074.0,3087.0,3089.0,3093.0,3097.0,3103.0,3099.0,3107.0,3111.0,3114.0,3121.0,3122.0,3132.0,3137.0,3140.0,3150.0,3151.0,3157.0,3160.0,3166.0,3176.0,3187.0,3187.0,3190.0,3195.0,3198.0,3198.0,3202.0,3285.0,3183.0,2300.0,1142.0,488.0,0.0,0.0,0.0,0.0,0.0,0.0,0.0,0.0,0.0,0.0,0.0,0.0,0.0,0.0,0.0,0.0,0.0,0.0,0.0,0.0,0.0,0.0,0.0,0.0,418.0,0.0,0.0,1222.0,1900.0,2143.0,2394.0,2605.0,2827.0,3013.0,3196.0,3281.0,3267.0,3239.0,3194.0,3153.0,3112.0,3090.0,3072.0,3060.0,3046.0,3036.0,3018.0,3003.0,2994.0,2978.0,2967.0,2954.0,2940.0,2936.0,2932.0,2925.0,2915.0,2907.0,2903.0,2898.0,2891.0","21","odd","169085","174091","5006","70388","169090","NA","67226","165613","NA","66482","NA","NA","2327","167585","NA","169091","2489","NA","NA","NA","174390","NA","166162","NA","174091","NA","167223","NA","165097","NA","67226","4135","NA","NA","174091","169085","66483","166162","NA","Extended template","0","0","0","yes","1024"
"undefined","undefined","undefined","NA","undefined","black","yes","xpyriment","legacy","legacy","0","uniform","undefined","undefined","0","10","NA","0","10","NA","0","0","0","0","10","NA","10","0","0","NA","NA","10","NA","10","NA","10","NA","10","NA","10","NA","0","0","0","0","10","10","0","10","NA","10/11/18 13:35:37","A template containing a practice and an experimental phase","easy","yes","Experiment.osexp","C:\Users\EEGExp\Desktop","no","mono","no","18","no","white","no","Ok","yes","768","legacy","10","10","0","C:/Users/EEGExp/Desktop/subject-21.csv","xpyriment","Kafkaesque Koffka","3.2.5","yes","[ 2720.  2712.  2704.  2698.  2691.  2685.  2681.  2680.  2669.  2669.
  2662.  2649.  2646.  2639.  2636.  2631.  2626.  2626.  2622.  2619.
  2613.  2613.  2615.  2611.  2607.  2604.  2604.  2602.  2599.  2600.
  2600.  2599.  2609.  2606.  2607.  2611.  2612.  2616.  2617.  2619.
  2623.  2630.  2634.  2638.  2640.  2643.  2647.  2648.  2654.  2659.
  2668.  2675.  2673.  2681.  2680.  2686.  2690.  2696.  2701.  2705.
  2709.  2713.  2719.  2737.  2744.  2748.  2747.  2753.  2761.  2760.
  2760.  2756.  2765.  2772.  2771.  2775.  2776.  2780.  2782.  2781.
  2779.  2779.  2780.  2775.  2780.  2774.  2766.  2763.  2759.  2757.
  2758.  2752.  2747.  2744.  2736.  2734.  2739.  2730.  2727.  2724.
  2722.  2718.  2718.  2718.  2719.  2720.  2720.  2719.  2715.  2718.
  2716.  2717.  2720.  2720.  2714.  2712.  2714.  2712.  2711.  2712.
  2711.  2711.  2712.  2713.  2715.  2720.  2724.  2723.  2734.  2740.
  2738.  2745.  2752.  2753.  2764.  2768.  2776.  2780.  2788.  2794.
  2803.  2816.  2815.  2826.  2843.  2847.  2852.  2861.  2868.  2876.
  2892.  2903.  2906.  2926.  2932.  2939.  2950.  2960.  2967.  2972.
  2981.  2989.  2998.  3000.  3013.  3025.  3029.  3038.  3044.  3052.
  3063.  3067.  3082.  3084.  3093.  3107.  3112.  3116.  3124.  3135.
  3147.  3155.  3158.  3168.  3178.  3183.  3197.  3203.  3208.  3219.
  3222.  3233.  3238.  3247.  3253.  3258.  3262.  3263.  3267.  3274.
  3284.  3283.  3285.  3293.  3289.  3290.  3291.  3293.  3296.  3304.
  3306.  3306.  3310.  3307.  3314.  3323.  3324.  3328.  3328.  3323.
  3323.  3323.  3325.  3329.  3325.  3325.  3328.  3324.  3322.  3325.
  3327.  3330.  3330.  3333.  3337.  3339.  3341.  3340.  3351.  3351.
  3357.  3359.  3366.  3375.  3377.  3387.  3393.  3397.  3397.  3400.
  3403.  3415.  3424.  3425.  3429.  3431.  3437.  3441.  3454.  3456.
  3459.  3466.  3466.  3466.  3468.  3469.  3475.  3475.  3470.  3470.
  3467.  3473.  3474.  3471.  3471.  3469.  3469.  3472.  3475.  3477.
  3477.  3477.  3477.  3477.  3473.  3472.  3471.  3471.  3476.  3473.
  3477.  3474.  3473.  3472.  3477.  3474.  3472.  3476.  3477.  3477.
  3480.  3482.  3483.  3483.  3482.  3485.  3483.  3484.  3494.  3489.
  3489.  3491.  3486.  3481.  3482.  3484.  3483.  3480.  3478.  3479.
  3480.  3479.  3475.  3479.  3484.  3476.  3469.  3468.  3467.  3466.
  3464.  3459.  3457.  3452.  3450.  3445.  3445.  3444.  3439.  3433.
  3427.  3421.  3422.  3411.  3403.  3393.  3383.  3386.  3379.  3370.
  3365.  3360.  3359.  3350.  3348.  3345.  3344.  3343.  3344.  3340.
  3344.  3340.  3344.  3342.  3345.  3346.  3353.  3352.  3354.  3354.
  3360.  3363.  3363.  3365.  3370.  3367.  3365.  3367.  3370.  3368.
  3368.  3370.  3370.  3372.  3370.  3368.  3369.  3369.  3364.  3368.
  3370.  3374.  3375.  3377.  3378.  3377.  3378.  3378.  3384.  3382.]","4 + 3","0","return","NA","NA","return","1645","NA","NA","1645","LinregressResult(slope=-1.846101100631879, intercept=2966.858270676692, rvalue=-0.20790816175552929, pvalue=2.7768522618768427e-05, stderr=0.43535860582061564)","2","legacy","-1.84610110063","1024","2","48000","-16","experiment","2720.0,2712.0,2704.0,2698.0,2691.0,2685.0,2681.0,2680.0,2669.0,2669.0,2662.0,2649.0,2646.0,2639.0,2636.0,2631.0,2626.0,2626.0,2622.0,2619.0,2613.0,2613.0,2615.0,2611.0,2607.0,2604.0,2604.0,2602.0,2599.0,2600.0,2600.0,2599.0,2609.0,2606.0,2607.0,2611.0,2612.0,2616.0,2617.0,2619.0,2623.0,2630.0,2634.0,2638.0,2640.0,2643.0,2647.0,2648.0,2654.0,2659.0,2668.0,2675.0,2673.0,2681.0,2680.0,2686.0,2690.0,2696.0,2701.0,2705.0,2709.0,2713.0,2719.0,2737.0,2744.0,2748.0,2747.0,2753.0,2761.0,2760.0,2760.0,2756.0,2765.0,2772.0,2771.0,2775.0,2776.0,2780.0,2782.0,2781.0,2779.0,2779.0,2780.0,2775.0,2780.0,2774.0,2766.0,2763.0,2759.0,2757.0,2758.0,2752.0,2747.0,2744.0,2736.0,2734.0,2739.0,2730.0,2727.0,2724.0,2722.0,2718.0,2718.0,2718.0,2719.0,2720.0,2720.0,2719.0,2715.0,2718.0,2716.0,2717.0,2720.0,2720.0,2714.0,2712.0,2714.0,2712.0,2711.0,2712.0,2711.0,2711.0,2712.0,2713.0,2715.0,2720.0,2724.0,2723.0,2734.0,2740.0,2738.0,2745.0,2752.0,2753.0,2764.0,2768.0,2776.0,2780.0,2788.0,2794.0,2803.0,2816.0,2815.0,2826.0,2843.0,2847.0,2852.0,2861.0,2868.0,2876.0,2892.0,2903.0,2906.0,2926.0,2932.0,2939.0,2950.0,2960.0,2967.0,2972.0,2981.0,2989.0,2998.0,3000.0,3013.0,3025.0,3029.0,3038.0,3044.0,3052.0,3063.0,3067.0,3082.0,3084.0,3093.0,3107.0,3112.0,3116.0,3124.0,3135.0,3147.0,3155.0,3158.0,3168.0,3178.0,3183.0,3197.0,3203.0,3208.0,3219.0,3222.0,3233.0,3238.0,3247.0,3253.0,3258.0,3262.0,3263.0,3267.0,3274.0,3284.0,3283.0,3285.0,3293.0,3289.0,3290.0,3291.0,3293.0,3296.0,3304.0,3306.0,3306.0,3310.0,3307.0,3314.0,3323.0,3324.0,3328.0,3328.0,3323.0,3323.0,3323.0,3325.0,3329.0,3325.0,3325.0,3328.0,3324.0,3322.0,3325.0,3327.0,3330.0,3330.0,3333.0,3337.0,3339.0,3341.0,3340.0,3351.0,3351.0,3357.0,3359.0,3366.0,3375.0,3377.0,3387.0,3393.0,3397.0,3397.0,3400.0,3403.0,3415.0,3424.0,3425.0,3429.0,3431.0,3437.0,3441.0,3454.0,3456.0,3459.0,3466.0,3466.0,3466.0,3468.0,3469.0,3475.0,3475.0,3470.0,3470.0,3467.0,3473.0,3474.0,3471.0,3471.0,3469.0,3469.0,3472.0,3475.0,3477.0,3477.0,3477.0,3477.0,3477.0,3473.0,3472.0,3471.0,3471.0,3476.0,3473.0,3477.0,3474.0,3473.0,3472.0,3477.0,3474.0,3472.0,3476.0,3477.0,3477.0,3480.0,3482.0,3483.0,3483.0,3482.0,3485.0,3483.0,3484.0,3494.0,3489.0,3489.0,3491.0,3486.0,3481.0,3482.0,3484.0,3483.0,3480.0,3478.0,3479.0,3480.0,3479.0,3475.0,3479.0,3484.0,3476.0,3469.0,3468.0,3467.0,3466.0,3464.0,3459.0,3457.0,3452.0,3450.0,3445.0,3445.0,3444.0,3439.0,3433.0,3427.0,3421.0,3422.0,3411.0,3403.0,3393.0,3383.0,3386.0,3379.0,3370.0,3365.0,3360.0,3359.0,3350.0,3348.0,3345.0,3344.0,3343.0,3344.0,3340.0,3344.0,3340.0,3344.0,3342.0,3345.0,3346.0,3353.0,3352.0,3354.0,3354.0,3360.0,3363.0,3363.0,3365.0,3370.0,3367.0,3365.0,3367.0,3370.0,3368.0,3368.0,3370.0,3370.0,3372.0,3370.0,3368.0,3369.0,3369.0,3364.0,3368.0,3370.0,3374.0,3375.0,3377.0,3378.0,3377.0,3378.0,3378.0,3384.0,3382.0","21","odd","178754","183761","5007","70388","178760","NA","67226","174922","NA","66482","NA","NA","2327","177254","NA","178761","2489","NA","NA","NA","184061","NA","175471","NA","183761","NA","176893","NA","174406","NA","67226","4135","NA","NA","183761","178754","66483","175471","NA","Extended template","0","0","0","yes","1024"
"undefined","undefined","undefined","NA","undefined","black","yes","xpyriment","legacy","legacy","0","uniform","undefined","undefined","0","11","NA","0","11","NA","0","0","0","0","11","NA","11","0","0","NA","NA","11","NA","11","NA","11","NA","11","NA","11","NA","0","0","0","0","11","11","0","11","NA","10/11/18 13:35:37","A template containing a practice and an experimental phase","hard","yes","Experiment.osexp","C:\Users\EEGExp\Desktop","no","mono","no","18","no","white","no","Ok","yes","768","legacy","11","11","0","C:/Users/EEGExp/Desktop/subject-21.csv","xpyriment","Kafkaesque Koffka","3.2.5","yes","[ 3049.  3044.  3031.  3023.  3021.  3010.  3002.  2996.  2988.  2990.
  2985.  2982.  2982.  2977.  2971.  2964.  2967.  2966.  2966.  2965.
  2963.  2964.  2964.  2964.  2967.  2967.  2970.  2971.  2973.  2971.
  2973.  2975.  2975.  2980.  2975.  2978.  2980.  2977.  2975.  2972.
  2978.  2974.  2968.  2968.  2965.  2956.  2949.  2945.  2937.  2930.
  2927.  2909.  2906.  2896.  2889.  2881.  2869.  2871.  2859.  2856.
  2849.  2843.  2839.  2836.  2832.  2828.  2827.  2823.  2823.  2818.
  2821.  2819.  2821.  2819.  2818.  2823.  2826.  2829.  2838.  2842.
  2845.  2850.  2856.  2869.  2872.  2881.  2886.  2898.  2906.  2904.
  2920.  2926.  2930.  2943.  2944.  2954.  2961.  2971.  2975.  2981.
  2993.  3000.  3009.  3003.  3006.  3016.  3020.  3016.  3026.  3035.
  3035.  3037.  3044.  3048.  3055.  3062.  3068.  3073.  3074.  3080.
  3090.  3093.  3101.  3112.  3116.  3125.  3129.  3138.  3150.  3162.
  3164.  3168.  3177.  3182.  3190.  3196.  3202.  3208.  3216.  3222.
  3225.  3228.  3234.  3236.  3243.  3247.  3251.  3254.  3255.  3257.
  3258.  3266.  3265.  3261.  3262.  3272.  3275.  3274.  3278.  3277.
  3282.  3284.  3287.  3289.  3286.  3299.  3296.  3299.  3298.  3301.
  3305.  3310.  3310.  3309.  3312.  3311.  3314.  3312.  3309.  3304.
  3303.  3302.  3297.  3295.  3295.  3289.  3292.  3286.  3280.  3278.
  3273.  3275.  3271.  3265.  3260.  3257.  3265.  3268.  3264.  3267.
  3270.  3271.  3272.  3273.  3274.  3274.  3278.  3279.  3283.  3283.
  3284.  3288.  3291.  3291.  3292.  3296.  3295.  3291.  3291.  3292.
  3294.  3288.  3294.  3296.  3296.  3294.  3287.  3287.  3285.  3283.
  3281.  3283.  3277.  3276.  3274.  3270.  3265.  3265.  3266.  3267.
  3266.  3267.  3266.  3259.  3263.  3264.  3267.  3265.  3267.  3270.
  3270.  3269.  3273.  3275.  3274.  3276.  3273.  3270.  3275.  3276.
  3276.  3282.  3283.  3286.  3284.  3289.  3284.  3290.  3291.  3292.
  3296.  3290.  3285.  3288.  3283.  3275.  3273.  3271.  3263.  3266.
  3263.  3254.  3244.  3243.  3243.  3233.  3232.  3231.  3228.  3225.
  3225.  3222.  3223.  3223.  3224.  3221.  3220.  3220.  3222.  3222.
  3219.  3223.  3224.  3224.  3245.  3245.  3244.  3248.  3253.  3248.
  3247.  3249.  3255.  3255.  3261.  3262.  3264.  3266.  3267.  3268.
  3263.  3273.  3272.  3274.  3278.  3281.  3281.  3283.  3288.  3291.
  3291.  3292.  3296.  3295.  3298.  3304.  3308.  3308.  3311.  3315.
  3316.  3321.  3320.  3329.  3333.  3337.  3326.  3334.  3344.  3348.
  3345.  3350.  3351.  3350.  3351.  3347.  3342.  3342.  3345.  3339.
  3328.  3330.  3324.  3326.  3318.  3315.  3306.  3304.  3305.  3289.
  3284.  3273.  3268.  3259.  3259.  3251.  3241.  3234.  3232.  3225.
  3222.  3216.  3213.  3203.  3199.  3192.  3183.  3174.  3174.  3166.
  3165.  3164.  3150.  3150.  3145.  3142.  3139.  3132.  3136.  3130.]","3x - 5 = 10","0","return","NA","NA","return","1645","NA","NA","1645","LinregressResult(slope=2.6096194663716648, intercept=2581.9337969924809, rvalue=0.91537709978848614, pvalue=2.3911837514851622e-159, stderr=0.057531633079862865)","2","legacy","2.60961946637","1024","2","48000","-16","experiment","3049.0,3044.0,3031.0,3023.0,3021.0,3010.0,3002.0,2996.0,2988.0,2990.0,2985.0,2982.0,2982.0,2977.0,2971.0,2964.0,2967.0,2966.0,2966.0,2965.0,2963.0,2964.0,2964.0,2964.0,2967.0,2967.0,2970.0,2971.0,2973.0,2971.0,2973.0,2975.0,2975.0,2980.0,2975.0,2978.0,2980.0,2977.0,2975.0,2972.0,2978.0,2974.0,2968.0,2968.0,2965.0,2956.0,2949.0,2945.0,2937.0,2930.0,2927.0,2909.0,2906.0,2896.0,2889.0,2881.0,2869.0,2871.0,2859.0,2856.0,2849.0,2843.0,2839.0,2836.0,2832.0,2828.0,2827.0,2823.0,2823.0,2818.0,2821.0,2819.0,2821.0,2819.0,2818.0,2823.0,2826.0,2829.0,2838.0,2842.0,2845.0,2850.0,2856.0,2869.0,2872.0,2881.0,2886.0,2898.0,2906.0,2904.0,2920.0,2926.0,2930.0,2943.0,2944.0,2954.0,2961.0,2971.0,2975.0,2981.0,2993.0,3000.0,3009.0,3003.0,3006.0,3016.0,3020.0,3016.0,3026.0,3035.0,3035.0,3037.0,3044.0,3048.0,3055.0,3062.0,3068.0,3073.0,3074.0,3080.0,3090.0,3093.0,3101.0,3112.0,3116.0,3125.0,3129.0,3138.0,3150.0,3162.0,3164.0,3168.0,3177.0,3182.0,3190.0,3196.0,3202.0,3208.0,3216.0,3222.0,3225.0,3228.0,3234.0,3236.0,3243.0,3247.0,3251.0,3254.0,3255.0,3257.0,3258.0,3266.0,3265.0,3261.0,3262.0,3272.0,3275.0,3274.0,3278.0,3277.0,3282.0,3284.0,3287.0,3289.0,3286.0,3299.0,3296.0,3299.0,3298.0,3301.0,3305.0,3310.0,3310.0,3309.0,3312.0,3311.0,3314.0,3312.0,3309.0,3304.0,3303.0,3302.0,3297.0,3295.0,3295.0,3289.0,3292.0,3286.0,3280.0,3278.0,3273.0,3275.0,3271.0,3265.0,3260.0,3257.0,3265.0,3268.0,3264.0,3267.0,3270.0,3271.0,3272.0,3273.0,3274.0,3274.0,3278.0,3279.0,3283.0,3283.0,3284.0,3288.0,3291.0,3291.0,3292.0,3296.0,3295.0,3291.0,3291.0,3292.0,3294.0,3288.0,3294.0,3296.0,3296.0,3294.0,3287.0,3287.0,3285.0,3283.0,3281.0,3283.0,3277.0,3276.0,3274.0,3270.0,3265.0,3265.0,3266.0,3267.0,3266.0,3267.0,3266.0,3259.0,3263.0,3264.0,3267.0,3265.0,3267.0,3270.0,3270.0,3269.0,3273.0,3275.0,3274.0,3276.0,3273.0,3270.0,3275.0,3276.0,3276.0,3282.0,3283.0,3286.0,3284.0,3289.0,3284.0,3290.0,3291.0,3292.0,3296.0,3290.0,3285.0,3288.0,3283.0,3275.0,3273.0,3271.0,3263.0,3266.0,3263.0,3254.0,3244.0,3243.0,3243.0,3233.0,3232.0,3231.0,3228.0,3225.0,3225.0,3222.0,3223.0,3223.0,3224.0,3221.0,3220.0,3220.0,3222.0,3222.0,3219.0,3223.0,3224.0,3224.0,3245.0,3245.0,3244.0,3248.0,3253.0,3248.0,3247.0,3249.0,3255.0,3255.0,3261.0,3262.0,3264.0,3266.0,3267.0,3268.0,3263.0,3273.0,3272.0,3274.0,3278.0,3281.0,3281.0,3283.0,3288.0,3291.0,3291.0,3292.0,3296.0,3295.0,3298.0,3304.0,3308.0,3308.0,3311.0,3315.0,3316.0,3321.0,3320.0,3329.0,3333.0,3337.0,3326.0,3334.0,3344.0,3348.0,3345.0,3350.0,3351.0,3350.0,3351.0,3347.0,3342.0,3342.0,3345.0,3339.0,3328.0,3330.0,3324.0,3326.0,3318.0,3315.0,3306.0,3304.0,3305.0,3289.0,3284.0,3273.0,3268.0,3259.0,3259.0,3251.0,3241.0,3234.0,3232.0,3225.0,3222.0,3216.0,3213.0,3203.0,3199.0,3192.0,3183.0,3174.0,3174.0,3166.0,3165.0,3164.0,3150.0,3150.0,3145.0,3142.0,3139.0,3132.0,3136.0,3130.0","21","odd","188067","193073","5006","70388","188072","NA","67226","184593","NA","66482","NA","NA","2327","186567","NA","188073","2489","NA","NA","NA","193372","NA","185145","NA","193073","NA","186206","NA","184078","NA","67226","4135","NA","NA","193073","188067","66483","185145","NA","Extended template","0","0","0","yes","1024"
"undefined","undefined","undefined","NA","undefined","black","yes","xpyriment","legacy","legacy","0","uniform","undefined","undefined","0","12","NA","0","12","NA","0","0","0","0","12","NA","12","0","0","NA","NA","12","NA","12","NA","12","NA","12","NA","12","NA","0","0","0","0","12","12","0","12","NA","10/11/18 13:35:37","A template containing a practice and an experimental phase","easy","yes","Experiment.osexp","C:\Users\EEGExp\Desktop","no","mono","no","18","no","white","no","Ok","yes","768","legacy","12","12","0","C:/Users/EEGExp/Desktop/subject-21.csv","xpyriment","Kafkaesque Koffka","3.2.5","yes","[ 2829.  2830.  2823.  2817.  2818.  2815.  2813.  2809.  2812.  2812.
  2809.  2806.  2812.  2813.  2811.  2811.  2811.  2814.  2811.  2818.
  2820.  2825.  2831.  2831.  2834.  2833.  2830.  2831.  2833.  2832.
  2833.  2833.  2837.  2829.  2845.  2886.  1962.   941.     0.     0.
     0.     0.     0.     0.     0.     0.     0.     0.     0.     0.
     0.     0.     0.     0.     0.     0.     0.     0.   973.  1298.
  2006.  2322.  2611.  2816.  2847.  2830.  2789.  2737.  2735.  2738.
  2739.  2735.  2735.  2734.  2734.  2735.  2732.  2733.  2732.  2727.
  2728.  2726.  2729.  2732.  2733.  2736.  2731.  2734.  2733.  2735.
  2736.  2737.  2737.  2737.  2743.  2748.  2754.  2751.  2756.  2762.
  2759.  2767.  2764.  2767.  2772.  2775.  2781.  2778.  2788.  2784.
  2795.  2800.  2799.  2801.  2809.  2813.  2812.  2819.  2819.  2826.
  2828.  2833.  2835.  2838.  2839.  2838.  2848.  2852.  2850.  2859.
  2863.  2862.  2860.  2858.  2858.  2860.  2861.  2858.  2859.  2859.
  2849.  2849.  2844.  2842.  2840.  2836.  2832.  2832.  2824.  2824.
  2819.  2817.  2815.  2812.  2810.  2809.  2806.  2803.  2803.  2801.
  2797.  2796.  2797.  2789.  2790.  2788.  2791.  2781.  2773.  2772.
  2772.  2759.  2769.  2759.  2755.  2755.  2751.  2759.  2757.  2743.
  2745.  2750.  2747.  2747.  2749.  2750.  2748.  2751.  2748.  2745.
  2746.  2748.  2750.  2759.  2759.  2760.  2760.  2760.  2762.  2762.
  2761.  2761.  2769.  2771.  2773.  2777.  2770.  2773.  2765.  2763.
  2758.  2845.  1860.     0.     0.     0.     0.     0.     0.     0.
     0.     0.     0.     0.     0.     0.     0.     0.     0.     0.
     0.     0.     0.   352.     0.   978.  1230.  1889.  2179.  2426.
  2702.  2864.  2878.  2875.  2829.  2783.  2780.  2778.  2777.  2776.
  2764.  2759.  2755.  2750.  2747.  2733.  2731.  2719.  2718.  2707.
  2699.  2696.  2696.  2686.  2686.  2684.  2684.  2684.  2676.  2674.
  2676.  2671.  2671.  2654.  2657.  2660.  2656.  2652.  2652.  2644.
  2644.  2642.  2637.  2631.  2634.  2636.  2631.  2631.  2635.  2638.
  2637.  2634.  2637.  2635.  2634.  2636.  2639.  2641.  2639.  2635.
  2633.  2638.  2641.  2638.  2636.  2636.  2643.  2641.  2641.  2646.
  2644.  2643.  2643.  2642.  2637.  2638.  2637.  2638.  2635.  2632.
  2635.  2634.  2633.  2636.  2632.  2621.  2618.  2617.  2614.  2613.
  2612.  2611.  2605.  2599.  2601.  2603.  2603.  2599.  2598.  2599.
  2595.  2596.  2600.  2593.  2591.  2591.  2596.  2595.  2596.  2599.
  2601.  2598.  2598.  2605.  2612.  2610.  2610.  2628.  2625.  2625.
  2628.  2630.  2638.  2646.  2642.  2649.  2652.  2653.  2655.  2661.
  2661.  2667.  2681.  2688.  2681.  2686.  2687.  2690.  2692.  2698.
  2699.  2702.  2707.  2707.  2710.  2713.  2714.  2715.  2720.  2722.
  2724.  2727.  2728.  2730.  2735.  2733.  2737.  2738.  2738.  2752.]","3 + 7","0","return","NA","NA","return","1645","NA","NA","1645","LinregressResult(slope=1.0214161026006412, intercept=2961.9585714285713, rvalue=0.7517572363577566, pvalue=5.70912624807943e-74, stderr=0.044911628795394995)","2","legacy","1.0214161026","1024","2","48000","-16","experiment","2829.0,2830.0,2823.0,2817.0,2818.0,2815.0,2813.0,2809.0,2812.0,2812.0,2809.0,2806.0,2812.0,2813.0,2811.0,2811.0,2811.0,2814.0,2811.0,2818.0,2820.0,2825.0,2831.0,2831.0,2834.0,2833.0,2830.0,2831.0,2833.0,2832.0,2833.0,2833.0,2837.0,2829.0,2845.0,2886.0,1962.0,941.0,0.0,0.0,0.0,0.0,0.0,0.0,0.0,0.0,0.0,0.0,0.0,0.0,0.0,0.0,0.0,0.0,0.0,0.0,0.0,0.0,973.0,1298.0,2006.0,2322.0,2611.0,2816.0,2847.0,2830.0,2789.0,2737.0,2735.0,2738.0,2739.0,2735.0,2735.0,2734.0,2734.0,2735.0,2732.0,2733.0,2732.0,2727.0,2728.0,2726.0,2729.0,2732.0,2733.0,2736.0,2731.0,2734.0,2733.0,2735.0,2736.0,2737.0,2737.0,2737.0,2743.0,2748.0,2754.0,2751.0,2756.0,2762.0,2759.0,2767.0,2764.0,2767.0,2772.0,2775.0,2781.0,2778.0,2788.0,2784.0,2795.0,2800.0,2799.0,2801.0,2809.0,2813.0,2812.0,2819.0,2819.0,2826.0,2828.0,2833.0,2835.0,2838.0,2839.0,2838.0,2848.0,2852.0,2850.0,2859.0,2863.0,2862.0,2860.0,2858.0,2858.0,2860.0,2861.0,2858.0,2859.0,2859.0,2849.0,2849.0,2844.0,2842.0,2840.0,2836.0,2832.0,2832.0,2824.0,2824.0,2819.0,2817.0,2815.0,2812.0,2810.0,2809.0,2806.0,2803.0,2803.0,2801.0,2797.0,2796.0,2797.0,2789.0,2790.0,2788.0,2791.0,2781.0,2773.0,2772.0,2772.0,2759.0,2769.0,2759.0,2755.0,2755.0,2751.0,2759.0,2757.0,2743.0,2745.0,2750.0,2747.0,2747.0,2749.0,2750.0,2748.0,2751.0,2748.0,2745.0,2746.0,2748.0,2750.0,2759.0,2759.0,2760.0,2760.0,2760.0,2762.0,2762.0,2761.0,2761.0,2769.0,2771.0,2773.0,2777.0,2770.0,2773.0,2765.0,2763.0,2758.0,2845.0,1860.0,0.0,0.0,0.0,0.0,0.0,0.0,0.0,0.0,0.0,0.0,0.0,0.0,0.0,0.0,0.0,0.0,0.0,0.0,0.0,0.0,352.0,0.0,978.0,1230.0,1889.0,2179.0,2426.0,2702.0,2864.0,2878.0,2875.0,2829.0,2783.0,2780.0,2778.0,2777.0,2776.0,2764.0,2759.0,2755.0,2750.0,2747.0,2733.0,2731.0,2719.0,2718.0,2707.0,2699.0,2696.0,2696.0,2686.0,2686.0,2684.0,2684.0,2684.0,2676.0,2674.0,2676.0,2671.0,2671.0,2654.0,2657.0,2660.0,2656.0,2652.0,2652.0,2644.0,2644.0,2642.0,2637.0,2631.0,2634.0,2636.0,2631.0,2631.0,2635.0,2638.0,2637.0,2634.0,2637.0,2635.0,2634.0,2636.0,2639.0,2641.0,2639.0,2635.0,2633.0,2638.0,2641.0,2638.0,2636.0,2636.0,2643.0,2641.0,2641.0,2646.0,2644.0,2643.0,2643.0,2642.0,2637.0,2638.0,2637.0,2638.0,2635.0,2632.0,2635.0,2634.0,2633.0,2636.0,2632.0,2621.0,2618.0,2617.0,2614.0,2613.0,2612.0,2611.0,2605.0,2599.0,2601.0,2603.0,2603.0,2599.0,2598.0,2599.0,2595.0,2596.0,2600.0,2593.0,2591.0,2591.0,2596.0,2595.0,2596.0,2599.0,2601.0,2598.0,2598.0,2605.0,2612.0,2610.0,2610.0,2628.0,2625.0,2625.0,2628.0,2630.0,2638.0,2646.0,2642.0,2649.0,2652.0,2653.0,2655.0,2661.0,2661.0,2667.0,2681.0,2688.0,2681.0,2686.0,2687.0,2690.0,2692.0,2698.0,2699.0,2702.0,2707.0,2707.0,2710.0,2713.0,2714.0,2715.0,2720.0,2722.0,2724.0,2727.0,2728.0,2730.0,2735.0,2733.0,2737.0,2738.0,2738.0,2752.0","21","odd","197384","202390","5006","70388","197389","NA","67226","193911","NA","66482","NA","NA","2327","195883","NA","197390","2489","NA","NA","NA","202689","NA","194460","NA","202390","NA","195522","NA","193390","NA","67226","4135","NA","NA","202390","197384","66483","194460","NA","Extended template","0","0","0","yes","1024"
"undefined","undefined","undefined","NA","undefined","black","yes","xpyriment","legacy","legacy","0","uniform","undefined","undefined","0","13","NA","0","13","NA","0","0","0","0","13","NA","13","0","0","NA","NA","13","NA","13","NA","13","NA","13","NA","13","NA","0","0","0","0","13","13","0","13","NA","10/11/18 13:35:37","A template containing a practice and an experimental phase","medium","yes","Experiment.osexp","C:\Users\EEGExp\Desktop","no","mono","no","18","no","white","no","Ok","yes","768","legacy","13","13","0","C:/Users/EEGExp/Desktop/subject-21.csv","xpyriment","Kafkaesque Koffka","3.2.5","yes","[ 2857.  2858.  2862.  2873.  2878.  2877.  2886.  2890.  2893.  2896.
  2900.  2905.  2910.  2915.  2919.  2920.  2920.  2923.  2923.  3016.
  2604.  1010.     0.     0.     0.     0.     0.     0.     0.     0.
     0.     0.     0.     0.     0.     0.     0.     0.     0.     0.
     0.     0.   327.     0.  1016.  1344.  2122.  2455.  2774.  3059.
  3152.  3138.  3122.  3039.  3020.  3008.  2997.  2982.  2969.  2955.
  2950.  2931.  2911.  2902.  2882.  2861.  2853.  2843.  2830.  2811.
  2807.  2795.  2778.  2772.  2766.  2759.  2755.  2751.  2749.  2740.
  2741.  2739.  2735.  2733.  2732.  2730.  2731.  2731.  2728.  2730.
  2735.  2742.  2740.  2744.  2750.  2755.  2753.  2760.  2763.  2775.
  2773.  2779.  2783.  2787.  2792.  2792.  2801.  2803.  2810.  2817.
  2820.  2823.  2831.  2834.  2835.  2837.  2841.  2847.  2847.  2853.
  2856.  2858.  2864.  2864.  2861.  2861.  2861.  2857.  2861.  2854.
  2859.  2853.  2850.  2851.  2856.  2855.  2853.  2852.  2844.  2847.
  2845.  2844.  2845.  2845.  2847.  2838.  2839.  2840.  2844.  2839.
  2840.  2843.  2844.  2841.  2842.  2847.  2846.  2844.  2846.  2853.
  2850.  2848.  2852.  2856.  2857.  2860.  2861.  2870.  2868.  2871.
  2874.  2880.  2885.  2889.  2891.  2890.  2898.  2906.  2903.  2905.
  2916.  2918.  2931.  2934.  2940.  2943.  2938.  2952.  2957.  2955.
  2961.  2965.  2960.  2967.  2968.  2973.  2974.  2971.  2971.  2970.
  2969.  2973.  2977.  2975.  2972.  2971.  2969.  2972.  2972.  2971.
  2966.  2967.  2964.  2960.  2962.  2958.  2963.  2959.  2958.  2960.
  2959.  2952.  2953.  2948.  2947.  2947.  2948.  2947.  2939.  2937.
  2937.  2938.  2940.  2939.  2940.  2935.  2935.  2931.  2931.  2929.
  2928.  2927.  2927.  2927.  2931.  2934.  2934.  2939.  2942.  2940.
  2938.  2942.  2941.  2940.  2938.  2939.  2941.  2947.  2947.  2952.
  2952.  2957.  2958.  2959.  2956.  2956.  2957.  2953.  2954.  2947.
  2946.  2943.  2940.  2936.  2929.  2923.  2916.  2910.  2899.  2891.
  2886.  2876.  2868.  2855.  2846.  2844.  2837.  2833.  2821.  2818.
  2809.  2805.  2797.  2794.  2790.  2784.  2779.  2779.  2778.  2774.
  2765.  2767.  2768.  2769.  2769.  2772.  2770.  2771.  2773.  2778.
  2774.  2778.  2784.  2779.  2786.  2784.  2790.  2795.  2796.  2799.
  2802.  2802.  2808.  2812.  2812.  2817.  2816.  2820.  2822.  2825.
  2827.  2833.  2836.  2837.  2836.  2840.  2850.  2852.  2855.  2862.
  2860.  2863.  2869.  2876.  2882.  2885.  2895.  2902.  2903.  2905.
  2912.  2918.  2914.  2919.  2928.  2933.  2934.  2937.  2942.  2951.
  2944.  2948.  2953.  2957.  2955.  2962.  2968.  2967.  2970.  2968.
  2969.  2972.  2972.  2972.  2971.  2967.  2966.  2964.  2962.  2959.
  2954.  2960.  2954.  2961.  2954.  2950.  2945.  2950.  2951.  2950.
  2947.  2951.  2947.  2948.  2952.  2953.  2955.  2954.  2960.  2962.]","7x = 28","0","return","NA","NA","return","1645","NA","NA","1645","LinregressResult(slope=0.99162001012506329, intercept=2215.8351879699248, rvalue=0.13436988517695236, pvalue=0.0071195023013700745, stderr=0.36656021158933216)","2","legacy","0.991620010125","1024","2","48000","-16","experiment","2857.0,2858.0,2862.0,2873.0,2878.0,2877.0,2886.0,2890.0,2893.0,2896.0,2900.0,2905.0,2910.0,2915.0,2919.0,2920.0,2920.0,2923.0,2923.0,3016.0,2604.0,1010.0,0.0,0.0,0.0,0.0,0.0,0.0,0.0,0.0,0.0,0.0,0.0,0.0,0.0,0.0,0.0,0.0,0.0,0.0,0.0,0.0,327.0,0.0,1016.0,1344.0,2122.0,2455.0,2774.0,3059.0,3152.0,3138.0,3122.0,3039.0,3020.0,3008.0,2997.0,2982.0,2969.0,2955.0,2950.0,2931.0,2911.0,2902.0,2882.0,2861.0,2853.0,2843.0,2830.0,2811.0,2807.0,2795.0,2778.0,2772.0,2766.0,2759.0,2755.0,2751.0,2749.0,2740.0,2741.0,2739.0,2735.0,2733.0,2732.0,2730.0,2731.0,2731.0,2728.0,2730.0,2735.0,2742.0,2740.0,2744.0,2750.0,2755.0,2753.0,2760.0,2763.0,2775.0,2773.0,2779.0,2783.0,2787.0,2792.0,2792.0,2801.0,2803.0,2810.0,2817.0,2820.0,2823.0,2831.0,2834.0,2835.0,2837.0,2841.0,2847.0,2847.0,2853.0,2856.0,2858.0,2864.0,2864.0,2861.0,2861.0,2861.0,2857.0,2861.0,2854.0,2859.0,2853.0,2850.0,2851.0,2856.0,2855.0,2853.0,2852.0,2844.0,2847.0,2845.0,2844.0,2845.0,2845.0,2847.0,2838.0,2839.0,2840.0,2844.0,2839.0,2840.0,2843.0,2844.0,2841.0,2842.0,2847.0,2846.0,2844.0,2846.0,2853.0,2850.0,2848.0,2852.0,2856.0,2857.0,2860.0,2861.0,2870.0,2868.0,2871.0,2874.0,2880.0,2885.0,2889.0,2891.0,2890.0,2898.0,2906.0,2903.0,2905.0,2916.0,2918.0,2931.0,2934.0,2940.0,2943.0,2938.0,2952.0,2957.0,2955.0,2961.0,2965.0,2960.0,2967.0,2968.0,2973.0,2974.0,2971.0,2971.0,2970.0,2969.0,2973.0,2977.0,2975.0,2972.0,2971.0,2969.0,2972.0,2972.0,2971.0,2966.0,2967.0,2964.0,2960.0,2962.0,2958.0,2963.0,2959.0,2958.0,2960.0,2959.0,2952.0,2953.0,2948.0,2947.0,2947.0,2948.0,2947.0,2939.0,2937.0,2937.0,2938.0,2940.0,2939.0,2940.0,2935.0,2935.0,2931.0,2931.0,2929.0,2928.0,2927.0,2927.0,2927.0,2931.0,2934.0,2934.0,2939.0,2942.0,2940.0,2938.0,2942.0,2941.0,2940.0,2938.0,2939.0,2941.0,2947.0,2947.0,2952.0,2952.0,2957.0,2958.0,2959.0,2956.0,2956.0,2957.0,2953.0,2954.0,2947.0,2946.0,2943.0,2940.0,2936.0,2929.0,2923.0,2916.0,2910.0,2899.0,2891.0,2886.0,2876.0,2868.0,2855.0,2846.0,2844.0,2837.0,2833.0,2821.0,2818.0,2809.0,2805.0,2797.0,2794.0,2790.0,2784.0,2779.0,2779.0,2778.0,2774.0,2765.0,2767.0,2768.0,2769.0,2769.0,2772.0,2770.0,2771.0,2773.0,2778.0,2774.0,2778.0,2784.0,2779.0,2786.0,2784.0,2790.0,2795.0,2796.0,2799.0,2802.0,2802.0,2808.0,2812.0,2812.0,2817.0,2816.0,2820.0,2822.0,2825.0,2827.0,2833.0,2836.0,2837.0,2836.0,2840.0,2850.0,2852.0,2855.0,2862.0,2860.0,2863.0,2869.0,2876.0,2882.0,2885.0,2895.0,2902.0,2903.0,2905.0,2912.0,2918.0,2914.0,2919.0,2928.0,2933.0,2934.0,2937.0,2942.0,2951.0,2944.0,2948.0,2953.0,2957.0,2955.0,2962.0,2968.0,2967.0,2970.0,2968.0,2969.0,2972.0,2972.0,2972.0,2971.0,2967.0,2966.0,2964.0,2962.0,2959.0,2954.0,2960.0,2954.0,2961.0,2954.0,2950.0,2945.0,2950.0,2951.0,2950.0,2947.0,2951.0,2947.0,2948.0,2952.0,2953.0,2955.0,2954.0,2960.0,2962.0","21","odd","206989","211995","5006","70388","206994","NA","67226","203221","NA","66482","NA","NA","2327","205489","NA","206995","2489","NA","NA","NA","212294","NA","203768","NA","211995","NA","205129","NA","202706","NA","67226","4135","NA","NA","211995","206989","66483","203768","NA","Extended template","0","0","0","yes","1024"
"undefined","undefined","undefined","NA","undefined","black","yes","xpyriment","legacy","legacy","0","uniform","undefined","undefined","0","14","NA","0","14","NA","0","0","0","0","14","NA","14","0","0","NA","NA","14","NA","14","NA","14","NA","14","NA","14","NA","0","0","0","0","14","14","0","14","NA","10/11/18 13:35:37","A template containing a practice and an experimental phase","easy","yes","Experiment.osexp","C:\Users\EEGExp\Desktop","no","mono","no","18","no","white","no","Ok","yes","768","legacy","14","14","0","C:/Users/EEGExp/Desktop/subject-21.csv","xpyriment","Kafkaesque Koffka","3.2.5","yes","[ 2913.  2921.  2927.  2938.  2947.  2955.  2966.  2972.  2979.  2985.
  2989.  2991.  2999.  3006.  3014.  3010.  3016.  2952.     0.     0.
     0.     0.     0.     0.     0.     0.     0.     0.     0.     0.
  1062.  1376.  2135.  2447.  2694.  2972.  3126.  3160.  3136.  3138.
  3082.  3056.  3037.  3037.  3037.  3026.  3019.  3014.  3009.  2999.
  2991.  2977.  2967.  2951.  2940.  2929.  2919.  2903.  2896.  2881.
  2868.  2858.  2855.  2843.  2838.  2825.  2817.  2809.  2801.  2793.
  2787.  2779.  2777.  2770.  2769.  2765.  2753.  2758.  2750.  2750.
  2748.  2746.  2743.  2742.  2741.  2745.  2746.  2748.  2752.  2748.
  2750.  2752.  2763.  2764.  2769.  2776.  2784.  2788.  2789.  2797.
  2806.  2809.  2816.  2820.  2821.  2832.  2837.  2844.  2850.  2855.
  2865.  2869.  2875.  2877.  2884.  2891.  2902.  2899.  2903.  2908.
  2909.  2917.  2916.  2923.  2924.  2930.  2932.  2928.  2934.  2933.
  2934.  2937.  2931.  2930.  2926.  2925.  2924.  2919.  2918.  2919.
  2917.  2918.  2914.  2915.  2907.  2905.  2908.  2907.  2903.  2905.
  2901.  2904.  2898.  2905.  2900.  2899.  2902.  2902.  2907.  2904.
  2913.  2906.  2915.  2919.  2917.  2924.  2926.  2931.  2933.  2941.
  2947.  2957.  2961.  2965.  2971.  2975.  2980.  2988.  2998.  3008.
  3006.  3011.  3020.  3024.  3032.  3034.  3039.  3052.  3056.  3059.
  3068.  3073.  3078.  3079.  3082.  3088.  3096.  3100.  3102.  3110.
  3113.  3117.  3121.  3120.  3123.  3127.  3132.  3131.  3136.  3140.
