"acc","accuracy","average_response_time","avg_rt","background","bidi","canvas_backend","clock_backend","color_backend","compensation","coordinates","correct","correct_instructions","count_arithmetic","count_arithmetic_task","count_blank_screen_1","count_blocksequence","count_calc_slope","count_calc_slope_1","count_collect_pupil_trace","count_end_of_experiment","count_end_of_practice","count_experiment","count_fixation_cross","count_fixation_cross_1","count_getdata","count_getdata_1","count_instructions","count_instructions2","count_letter_task_1","count_new_inline_script","count_new_logger","count_new_logger_1","count_new_pygaze_drift_correct","count_new_pygaze_drift_correct_1","count_new_pygaze_log","count_new_pygaze_log_2","count_new_pygaze_start_recording","count_new_pygaze_start_recording_1","count_new_pygaze_stop_recording","count_new_pygaze_stop_recording_1","count_practice_instructions","count_pygaze_init","count_reset_feedback","count_reversal","count_test","count_test1","count_training","count_trial_sequence","count_trial_sequence_1","datetime","description","difficulty","disable_garbage_collection","experiment_file","experiment_path","font_bold","font_family","font_italic","font_size","font_underline","foreground","form_clicks","form_response","fullscreen","height","keyboard_backend","live_row","live_row_arithmetic","live_row_training","logfile","mouse_backend","opensesame_codename","opensesame_version","practice","pupilsizes","question_no","repeat_cycle","response","response_end_of_experiment","response_end_of_practice","response_instructions","response_time","response_time_end_of_experiment","response_time_end_of_practice","response_time_instructions","result","round_decimals","sampler_backend","slope","sound_buf_size","sound_channels","sound_freq","sound_sample_size","start","str_pupilsizes","subject_nr","subject_parity","t0","t1","t2","tasktype","time_arithmetic","time_arithmetic_task","time_blank_screen_1","time_blocksequence","time_calc_slope","time_calc_slope_1","time_collect_pupil_trace","time_end_of_experiment","time_end_of_practice","time_experiment","time_fixation_cross","time_fixation_cross_1","time_getdata","time_getdata_1","time_instructions","time_instructions2","time_letter_task_1","time_new_inline_script","time_new_logger","time_new_logger_1","time_new_pygaze_drift_correct","time_new_pygaze_drift_correct_1","time_new_pygaze_log","time_new_pygaze_log_2","time_new_pygaze_start_recording","time_new_pygaze_start_recording_1","time_new_pygaze_stop_recording","time_new_pygaze_stop_recording_1","time_practice_instructions","time_pygaze_init","time_reset_feedback","time_reversal","time_test","time_test1","time_training","time_trial_sequence","time_trial_sequence_1","title","total_correct","total_response_time","total_responses","uniform_coordinates","width"
"undefined","undefined","undefined","undefined","black","yes","xpyriment","legacy","legacy","0","uniform","undefined","undefined","0","0","NA","0","0","NA","0","0","0","0","0","NA","0","NA","0","0","NA","NA","0","NA","0","NA","0","NA","0","NA","0","NA","0","0","0","0","NA","NA","0","0","NA","10/18/18 13:39:13","A template containing a practice and an experimental phase","easy","yes","Experiment.osexp","C:\Users\EEGExp\Desktop","no","mono","no","18","no","white","no","Ok","yes","768","legacy","0","0","0","C:/Users/EEGExp/Desktop/subject-1.csv","xpyriment","Kafkaesque Koffka","3.2.5","yes","[ 1981.  1980.  1974.  1970.  1965.  1961.  1955.  1952.  1947.  1940.
  1931.  1926.  1917.  1909.  1900.  1889.  1882.  1865.  1860.  1854.
  1847.  1835.  1829.  1821.  1812.  1808.  1797.  1793.  1787.  1782.
  1779.  1770.  1765.  1758.  1755.  1747.  1743.  1739.  1731.  1727.
  1719.  1716.  1715.  1712.  1711.  1710.  1707.  1703.  1702.  1700.
  1695.  1692.  1690.  1688.  1690.  1686.  1685.  1684.  1685.  1686.
  1680.  1676.  1673.  1672.  1672.  1666.  1666.  1667.  1665.  1659.
  1657.  1654.  1653.  1651.  1650.  1649.  1645.  1644.  1645.  1639.
  1642.  1645.  1645.  1646.  1644.  1645.  1645.  1647.  1648.  1648.
  1651.  1652.  1654.  1654.  1656.  1655.  1655.  1658.  1661.  1661.
  1665.  1663.  1668.  1671.  1670.  1674.  1674.  1677.  1679.  1681.
  1681.  1683.  1684.  1686.  1683.  1684.  1682.  1685.  1686.  1684.
  1687.  1686.  1688.  1691.  1692.  1693.  1692.  1694.  1697.  1699.
  1702.  1702.  1704.  1701.  1704.  1703.  1703.  1708.  1702.  1701.
  1701.  1701.  1697.  1702.  1702.  1696.  1693.  1695.  1690.  1686.
  1680.  1677.  1675.  1671.  1668.  1663.  1657.  1659.  1654.  1648.
  1647.  1640.  1636.  1636.  1634.  1631.  1630.  1627.  1622.  1622.
  1616.  1615.  1615.  1610.  1612.  1604.  1606.  1605.  1605.  1604.
  1601.  1601.  1598.  1601.  1601.  1603.  1603.  1601.  1601.  1600.
  1603.  1601.  1602.  1603.  1607.  1606.  1604.  1604.  1606.  1607.
  1608.  1602.  1603.  1604.  1610.  1606.  1606.  1609.  1611.  1612.
  1611.  1615.  1621.  1622.  1626.  1630.  1634.  1638.  1647.  1650.
  1658.  1661.  1669.  1674.  1682.  1686.  1693.  1698.  1703.  1709.
  1713.  1722.  1728.  1736.  1739.  1747.  1755.  1762.  1764.  1770.
  1777.  1783.  1787.  1788.  1793.  1801.  1805.  1807.  1808.  1814.
  1819.  1819.  1824.  1830.  1832.  1835.  1836.  1837.  1838.  1845.
  1845.  1844.  1841.  1840.  1840.  1841.  1841.  1839.  1840.  1841.
  1839.  1837.  1837.  1838.  1837.  1831.  1836.  1833.  1833.  1830.
  1831.  1831.  1830.  1831.  1829.  1827.  1827.  1828.  1828.  1826.
  1824.  1829.  1826.  1825.  1827.  1824.  1824.  1828.  1828.  1830.
  1830.  1832.  1836.  1837.  1839.  1839.  1846.  1846.  1847.  1853.
  1853.  1854.  1857.  1863.  1865.  1869.  1869.  1870.  1874.  1877.
  1879.  1883.  1885.  1890.  1892.  1894.  1896.  1897.  1902.  1905.
  1905.  1908.  1911.  1911.  1917.  1922.  1923.  1927.  1925.  1929.
  1931.  1932.  1932.  1937.  1935.  1940.  1939.  1939.  1943.  1949.
  1946.  1946.  1945.  1946.  1947.  1948.  1945.  1951.  1950.  1950.
  1950.  1949.  1947.  1947.  1948.  1944.  1950.  1949.  1950.  1947.
  1945.  1947.  1949.  1947.  1947.  1945.  1947.  1946.  1945.  1940.
  1938.  1936.  1938.  1933.  1931.  1926.  1918.  1919.  1914.  1909.
  1912.  1911.  1906.  1907.  1901.  1898.  1901.  1902.  1903.  1903.
  1898.  1906.  1902.  1904.  1904.  1909.  1912.  1912.  1914.  1915.
  1918.  1925.  1924.  1925.  1925.  1930.  1929.  1934.  1936.  1944.
  1941.  1948.  1949.  1951.  1953.  1959.  1960.  1964.  1958.  1965.
  1967.  1965.  1973.  1974.  1977.  1975.  1975.  1979.  1977.  1977.
  1977.  1974.  1973.  1977.  1976.  1969.  1967.  1968.  1969.  1964.
  1961.  1963.  1958.  1954.  1949.  1945.  1946.  1946.  1948.  1945.
  1942.  1943.  1937.  1935.  1932.  1932.  1926.  1924.  1926.  1919.
  1919.  1918.  1918.  1913.  1914.  1910.  1910.  1910.  1912.  1907.
  1905.  1906.  1905.  1906.  1906.  1908.  1906.  1904.  1905.  1903.
  1898.  1898.  1895.  1892.  1895.  1893.  1892.  1884.  1883.  1880.]","4 + 3","0","space","NA","NA","space","1466","NA","NA","1466","LinregressResult(slope=0.59903241212964853, intercept=1651.386380761523, rvalue=0.69204236998260549, pvalue=1.6621995412309856e-72, stderr=0.027999744396027284)","2","legacy","0.59903241213","1024","2","48000","-16","experiment","1981.0,1980.0,1974.0,1970.0,1965.0,1961.0,1955.0,1952.0,1947.0,1940.0,1931.0,1926.0,1917.0,1909.0,1900.0,1889.0,1882.0,1865.0,1860.0,1854.0,1847.0,1835.0,1829.0,1821.0,1812.0,1808.0,1797.0,1793.0,1787.0,1782.0,1779.0,1770.0,1765.0,1758.0,1755.0,1747.0,1743.0,1739.0,1731.0,1727.0,1719.0,1716.0,1715.0,1712.0,1711.0,1710.0,1707.0,1703.0,1702.0,1700.0,1695.0,1692.0,1690.0,1688.0,1690.0,1686.0,1685.0,1684.0,1685.0,1686.0,1680.0,1676.0,1673.0,1672.0,1672.0,1666.0,1666.0,1667.0,1665.0,1659.0,1657.0,1654.0,1653.0,1651.0,1650.0,1649.0,1645.0,1644.0,1645.0,1639.0,1642.0,1645.0,1645.0,1646.0,1644.0,1645.0,1645.0,1647.0,1648.0,1648.0,1651.0,1652.0,1654.0,1654.0,1656.0,1655.0,1655.0,1658.0,1661.0,1661.0,1665.0,1663.0,1668.0,1671.0,1670.0,1674.0,1674.0,1677.0,1679.0,1681.0,1681.0,1683.0,1684.0,1686.0,1683.0,1684.0,1682.0,1685.0,1686.0,1684.0,1687.0,1686.0,1688.0,1691.0,1692.0,1693.0,1692.0,1694.0,1697.0,1699.0,1702.0,1702.0,1704.0,1701.0,1704.0,1703.0,1703.0,1708.0,1702.0,1701.0,1701.0,1701.0,1697.0,1702.0,1702.0,1696.0,1693.0,1695.0,1690.0,1686.0,1680.0,1677.0,1675.0,1671.0,1668.0,1663.0,1657.0,1659.0,1654.0,1648.0,1647.0,1640.0,1636.0,1636.0,1634.0,1631.0,1630.0,1627.0,1622.0,1622.0,1616.0,1615.0,1615.0,1610.0,1612.0,1604.0,1606.0,1605.0,1605.0,1604.0,1601.0,1601.0,1598.0,1601.0,1601.0,1603.0,1603.0,1601.0,1601.0,1600.0,1603.0,1601.0,1602.0,1603.0,1607.0,1606.0,1604.0,1604.0,1606.0,1607.0,1608.0,1602.0,1603.0,1604.0,1610.0,1606.0,1606.0,1609.0,1611.0,1612.0,1611.0,1615.0,1621.0,1622.0,1626.0,1630.0,1634.0,1638.0,1647.0,1650.0,1658.0,1661.0,1669.0,1674.0,1682.0,1686.0,1693.0,1698.0,1703.0,1709.0,1713.0,1722.0,1728.0,1736.0,1739.0,1747.0,1755.0,1762.0,1764.0,1770.0,1777.0,1783.0,1787.0,1788.0,1793.0,1801.0,1805.0,1807.0,1808.0,1814.0,1819.0,1819.0,1824.0,1830.0,1832.0,1835.0,1836.0,1837.0,1838.0,1845.0,1845.0,1844.0,1841.0,1840.0,1840.0,1841.0,1841.0,1839.0,1840.0,1841.0,1839.0,1837.0,1837.0,1838.0,1837.0,1831.0,1836.0,1833.0,1833.0,1830.0,1831.0,1831.0,1830.0,1831.0,1829.0,1827.0,1827.0,1828.0,1828.0,1826.0,1824.0,1829.0,1826.0,1825.0,1827.0,1824.0,1824.0,1828.0,1828.0,1830.0,1830.0,1832.0,1836.0,1837.0,1839.0,1839.0,1846.0,1846.0,1847.0,1853.0,1853.0,1854.0,1857.0,1863.0,1865.0,1869.0,1869.0,1870.0,1874.0,1877.0,1879.0,1883.0,1885.0,1890.0,1892.0,1894.0,1896.0,1897.0,1902.0,1905.0,1905.0,1908.0,1911.0,1911.0,1917.0,1922.0,1923.0,1927.0,1925.0,1929.0,1931.0,1932.0,1932.0,1937.0,1935.0,1940.0,1939.0,1939.0,1943.0,1949.0,1946.0,1946.0,1945.0,1946.0,1947.0,1948.0,1945.0,1951.0,1950.0,1950.0,1950.0,1949.0,1947.0,1947.0,1948.0,1944.0,1950.0,1949.0,1950.0,1947.0,1945.0,1947.0,1949.0,1947.0,1947.0,1945.0,1947.0,1946.0,1945.0,1940.0,1938.0,1936.0,1938.0,1933.0,1931.0,1926.0,1918.0,1919.0,1914.0,1909.0,1912.0,1911.0,1906.0,1907.0,1901.0,1898.0,1901.0,1902.0,1903.0,1903.0,1898.0,1906.0,1902.0,1904.0,1904.0,1909.0,1912.0,1912.0,1914.0,1915.0,1918.0,1925.0,1924.0,1925.0,1925.0,1930.0,1929.0,1934.0,1936.0,1944.0,1941.0,1948.0,1949.0,1951.0,1953.0,1959.0,1960.0,1964.0,1958.0,1965.0,1967.0,1965.0,1973.0,1974.0,1977.0,1975.0,1975.0,1979.0,1977.0,1977.0,1977.0,1974.0,1973.0,1977.0,1976.0,1969.0,1967.0,1968.0,1969.0,1964.0,1961.0,1963.0,1958.0,1954.0,1949.0,1945.0,1946.0,1946.0,1948.0,1945.0,1942.0,1943.0,1937.0,1935.0,1932.0,1932.0,1926.0,1924.0,1926.0,1919.0,1919.0,1918.0,1918.0,1913.0,1914.0,1910.0,1910.0,1910.0,1912.0,1907.0,1905.0,1906.0,1905.0,1906.0,1906.0,1908.0,1906.0,1904.0,1905.0,1903.0,1898.0,1898.0,1895.0,1892.0,1895.0,1893.0,1892.0,1884.0,1883.0,1880.0","1","odd","NA","NA","NA","arithmetic","49423","53022","NA","46635","58024","NA","46212","NA","NA","1576","51518","NA","53024","NA","1659","NA","NA","NA","58330","NA","49747","NA","58026","NA","51169","NA","NA","NA","46636","3126","NA","NA","NA","NA","46212","49747","NA","Extended template","0","0","0","yes","1024"
"undefined","undefined","undefined","undefined","black","yes","xpyriment","legacy","legacy","0","uniform","undefined","undefined","0","1","NA","0","1","NA","0","0","0","0","1","NA","1","NA","0","0","NA","NA","1","NA","1","NA","1","NA","1","NA","1","NA","0","0","0","0","NA","NA","0","1","NA","10/18/18 13:39:13","A template containing a practice and an experimental phase","easy","yes","Experiment.osexp","C:\Users\EEGExp\Desktop","no","mono","no","18","no","white","no","Ok","yes","768","legacy","1","1","0","C:/Users/EEGExp/Desktop/subject-1.csv","xpyriment","Kafkaesque Koffka","3.2.5","yes","[ 1742.  1745.  1744.  1740.  1740.  1736.  1740.  1741.  1744.  1741.
  1740.  1738.  1736.  1735.  1736.  1737.  1738.  1737.  1734.  1727.
  1725.  1728.  1726.  1725.  1723.  1717.  1721.  1718.  1718.  1717.
  1714.  1717.  1715.  1715.  1715.  1713.  1720.  1717.  1718.  1721.
  1719.  1717.  1722.  1723.  1723.  1722.  1728.  1730.  1724.  1725.
  1725.  1720.  1723.  1720.  1713.  1714.  1713.  1715.  1708.  1709.
  1706.  1708.  1708.  1707.  1705.  1707.  1709.  1708.  1706.  1707.
  1709.  1708.  1709.  1707.  1706.  1713.  1717.  1718.  1720.  1724.
  1723.  1723.  1730.  1733.  1736.  1736.  1742.  1743.  1745.  1747.
  1749.  1748.  1746.  1748.  1746.  1744.  1742.  1742.  1742.  1739.
  1738.  1738.  1741.  1742.  1739.  1735.  1733.  1733.  1737.  1732.
  1733.  1734.  1729.  1730.  1729.  1728.  1726.  1722.  1719.  1722.
  1722.  1721.  1718.  1716.  1716.  1711.  1708.  1713.  1708.  1706.
  1705.  1706.  1706.  1706.  1703.  1703.  1708.  1705.  1708.  1705.
  1705.  1706.  1707.  1708.  1709.  1707.  1711.  1713.  1715.  1711.
  1716.  1717.  1719.  1722.  1725.  1727.  1731.  1735.  1737.  1741.
  1746.  1748.  1751.  1755.  1756.  1760.  1764.  1763.  1770.  1770.
  1776.  1776.  1778.  1783.  1783.  1791.  1791.  1789.  1792.  1791.
  1795.  1795.  1799.  1803.  1801.  1803.  1805.  1805.  1807.  1806.
  1808.  1807.  1801.  1801.  1801.  1796.  1791.  1792.  1787.  1784.
  1782.  1777.  1768.  1766.  1762.  1762.  1754.  1750.  1744.  1739.
  1734.  1730.  1729.  1726.  1720.  1715.  1712.  1710.  1704.  1702.
  1700.  1701.  1697.  1698.  1698.  1693.  1694.  1689.  1692.  1686.
  1685.  1683.  1682.  1681.  1681.  1677.  1677.  1676.  1673.  1674.
  1666.  1664.  1663.  1663.  1659.  1659.  1659.  1656.  1652.  1651.
  1650.  1647.  1652.  1645.  1648.  1647.  1648.  1650.  1648.  1645.
  1648.  1647.  1648.  1650.  1649.  1654.  1653.  1654.  1651.  1653.
  1647.  1647.  1645.  1647.  1641.  1639.  1637.  1634.  1629.  1627.
  1624.  1625.  1622.  1621.  1619.  1615.  1612.  1612.  1614.  1610.
  1606.  1603.  1604.  1606.  1604.  1604.  1604.  1607.  1608.  1608.
  1610.  1612.  1610.  1614.  1619.  1621.  1620.  1621.  1623.  1628.
  1628.  1631.  1629.  1632.  1635.  1637.  1634.  1637.  1640.  1640.
  1643.  1644.  1644.  1648.  1647.  1646.  1652.  1651.  1651.  1652.
  1652.  1656.  1656.  1655.  1652.  1655.  1657.  1656.  1656.  1655.
  1657.  1658.  1659.  1656.  1663.  1669.  1669.  1679.  1685.  1690.
  1700.  1733.  1672.  1671.  1673.  1671.  1672.  1667.  1666.  1665.
  1665.  1665.  1665.  1661.  1660.  1659.  1662.  1663.  1663.  1664.
  1663.  1661.  1666.  1663.  1661.  1665.  1663.  1665.  1664.  1663.
  1667.  1666.  1664.  1667.  1671.  1672.  1670.  1674.  1676.  1680.
  1681.  1683.  1679.  1681.  1679.  1676.  1675.  1671.  1667.  1666.
  1653.  1646.  1638.  1635.  1629.  1622.  1615.  1611.  1601.  1596.
  1592.  1587.  1584.  1577.  1577.  1575.  1571.  1565.  1563.  1562.
  1562.  1558.  1557.  1556.  1555.  1552.  1551.  1555.  1554.  1555.
  1555.  1552.  1555.  1556.  1553.  1555.  1560.  1558.  1555.  1557.
  1561.  1560.  1560.  1567.  1568.  1573.  1574.  1570.  1575.  1575.
  1574.  1573.  1579.  1577.  1580.  1576.  1580.  1580.  1581.  1584.
  1579.  1583.  1580.  1583.  1584.  1582.  1587.  1587.  1589.  1592.
  1595.  1596.  1598.  1600.  1603.  1607.  1608.  1612.  1611.  1611.
  1617.  1614.  1614.  1614.  1617.  1619.  1620.  1621.  1622.  1622.
  1620.  1619.  1626.  1627.  1625.  1628.  1629.  1629.  1627.  1626.]","3 + 7","0","space","NA","NA","space","1466","NA","NA","1466","LinregressResult(slope=-0.34441740966963869, intercept=1763.3605611222445, rvalue=-0.78707019576366311, pvalue=1.4814963432870742e-106, stderr=0.012096117335129965)","2","legacy","-0.34441740967","1024","2","48000","-16","experiment","1742.0,1745.0,1744.0,1740.0,1740.0,1736.0,1740.0,1741.0,1744.0,1741.0,1740.0,1738.0,1736.0,1735.0,1736.0,1737.0,1738.0,1737.0,1734.0,1727.0,1725.0,1728.0,1726.0,1725.0,1723.0,1717.0,1721.0,1718.0,1718.0,1717.0,1714.0,1717.0,1715.0,1715.0,1715.0,1713.0,1720.0,1717.0,1718.0,1721.0,1719.0,1717.0,1722.0,1723.0,1723.0,1722.0,1728.0,1730.0,1724.0,1725.0,1725.0,1720.0,1723.0,1720.0,1713.0,1714.0,1713.0,1715.0,1708.0,1709.0,1706.0,1708.0,1708.0,1707.0,1705.0,1707.0,1709.0,1708.0,1706.0,1707.0,1709.0,1708.0,1709.0,1707.0,1706.0,1713.0,1717.0,1718.0,1720.0,1724.0,1723.0,1723.0,1730.0,1733.0,1736.0,1736.0,1742.0,1743.0,1745.0,1747.0,1749.0,1748.0,1746.0,1748.0,1746.0,1744.0,1742.0,1742.0,1742.0,1739.0,1738.0,1738.0,1741.0,1742.0,1739.0,1735.0,1733.0,1733.0,1737.0,1732.0,1733.0,1734.0,1729.0,1730.0,1729.0,1728.0,1726.0,1722.0,1719.0,1722.0,1722.0,1721.0,1718.0,1716.0,1716.0,1711.0,1708.0,1713.0,1708.0,1706.0,1705.0,1706.0,1706.0,1706.0,1703.0,1703.0,1708.0,1705.0,1708.0,1705.0,1705.0,1706.0,1707.0,1708.0,1709.0,1707.0,1711.0,1713.0,1715.0,1711.0,1716.0,1717.0,1719.0,1722.0,1725.0,1727.0,1731.0,1735.0,1737.0,1741.0,1746.0,1748.0,1751.0,1755.0,1756.0,1760.0,1764.0,1763.0,1770.0,1770.0,1776.0,1776.0,1778.0,1783.0,1783.0,1791.0,1791.0,1789.0,1792.0,1791.0,1795.0,1795.0,1799.0,1803.0,1801.0,1803.0,1805.0,1805.0,1807.0,1806.0,1808.0,1807.0,1801.0,1801.0,1801.0,1796.0,1791.0,1792.0,1787.0,1784.0,1782.0,1777.0,1768.0,1766.0,1762.0,1762.0,1754.0,1750.0,1744.0,1739.0,1734.0,1730.0,1729.0,1726.0,1720.0,1715.0,1712.0,1710.0,1704.0,1702.0,1700.0,1701.0,1697.0,1698.0,1698.0,1693.0,1694.0,1689.0,1692.0,1686.0,1685.0,1683.0,1682.0,1681.0,1681.0,1677.0,1677.0,1676.0,1673.0,1674.0,1666.0,1664.0,1663.0,1663.0,1659.0,1659.0,1659.0,1656.0,1652.0,1651.0,1650.0,1647.0,1652.0,1645.0,1648.0,1647.0,1648.0,1650.0,1648.0,1645.0,1648.0,1647.0,1648.0,1650.0,1649.0,1654.0,1653.0,1654.0,1651.0,1653.0,1647.0,1647.0,1645.0,1647.0,1641.0,1639.0,1637.0,1634.0,1629.0,1627.0,1624.0,1625.0,1622.0,1621.0,1619.0,1615.0,1612.0,1612.0,1614.0,1610.0,1606.0,1603.0,1604.0,1606.0,1604.0,1604.0,1604.0,1607.0,1608.0,1608.0,1610.0,1612.0,1610.0,1614.0,1619.0,1621.0,1620.0,1621.0,1623.0,1628.0,1628.0,1631.0,1629.0,1632.0,1635.0,1637.0,1634.0,1637.0,1640.0,1640.0,1643.0,1644.0,1644.0,1648.0,1647.0,1646.0,1652.0,1651.0,1651.0,1652.0,1652.0,1656.0,1656.0,1655.0,1652.0,1655.0,1657.0,1656.0,1656.0,1655.0,1657.0,1658.0,1659.0,1656.0,1663.0,1669.0,1669.0,1679.0,1685.0,1690.0,1700.0,1733.0,1672.0,1671.0,1673.0,1671.0,1672.0,1667.0,1666.0,1665.0,1665.0,1665.0,1665.0,1661.0,1660.0,1659.0,1662.0,1663.0,1663.0,1664.0,1663.0,1661.0,1666.0,1663.0,1661.0,1665.0,1663.0,1665.0,1664.0,1663.0,1667.0,1666.0,1664.0,1667.0,1671.0,1672.0,1670.0,1674.0,1676.0,1680.0,1681.0,1683.0,1679.0,1681.0,1679.0,1676.0,1675.0,1671.0,1667.0,1666.0,1653.0,1646.0,1638.0,1635.0,1629.0,1622.0,1615.0,1611.0,1601.0,1596.0,1592.0,1587.0,1584.0,1577.0,1577.0,1575.0,1571.0,1565.0,1563.0,1562.0,1562.0,1558.0,1557.0,1556.0,1555.0,1552.0,1551.0,1555.0,1554.0,1555.0,1555.0,1552.0,1555.0,1556.0,1553.0,1555.0,1560.0,1558.0,1555.0,1557.0,1561.0,1560.0,1560.0,1567.0,1568.0,1573.0,1574.0,1570.0,1575.0,1575.0,1574.0,1573.0,1579.0,1577.0,1580.0,1576.0,1580.0,1580.0,1581.0,1584.0,1579.0,1583.0,1580.0,1583.0,1584.0,1582.0,1587.0,1587.0,1589.0,1592.0,1595.0,1596.0,1598.0,1600.0,1603.0,1607.0,1608.0,1612.0,1611.0,1611.0,1617.0,1614.0,1614.0,1614.0,1617.0,1619.0,1620.0,1621.0,1622.0,1622.0,1620.0,1619.0,1626.0,1627.0,1625.0,1628.0,1629.0,1629.0,1627.0,1626.0","1","odd","NA","NA","NA","arithmetic","49423","62441","NA","46635","67442","NA","46212","NA","NA","1576","60937","NA","62442","NA","1659","NA","NA","NA","67746","NA","59255","NA","67443","NA","60586","NA","58351","NA","46636","3126","NA","NA","NA","NA","46212","59255","NA","Extended template","0","0","0","yes","1024"
"undefined","undefined","undefined","undefined","black","yes","xpyriment","legacy","legacy","0","uniform","undefined","undefined","0","2","NA","0","2","NA","0","0","0","0","2","NA","2","NA","0","0","NA","NA","2","NA","2","NA","2","NA","2","NA","2","NA","0","0","0","0","NA","NA","0","2","NA","10/18/18 13:39:13","A template containing a practice and an experimental phase","easy","yes","Experiment.osexp","C:\Users\EEGExp\Desktop","no","mono","no","18","no","white","no","Ok","yes","768","legacy","2","2","0","C:/Users/EEGExp/Desktop/subject-1.csv","xpyriment","Kafkaesque Koffka","3.2.5","yes","[ 1746.  1743.  1743.  1745.  1745.  1743.  1743.  1743.  1747.  1749.
  1747.  1744.  1747.  1752.  1754.  1749.  1749.  1751.  1749.  1750.
  1753.  1753.  1753.  1753.  1751.  1752.  1753.  1758.  1757.  1755.
  1764.  1760.  1758.  1764.  1765.  1769.  1772.  1774.  1779.  1779.
  1781.  1781.  1783.  1784.  1783.  1784.  1784.  1781.  1782.  1777.
  1776.  1775.  1771.  1769.  1767.  1763.  1759.  1758.  1755.  1753.
  1755.  1752.  1746.  1744.  1744.  1742.  1740.  1742.  1741.  1737.
  1735.  1730.  1729.  1728.  1724.  1720.  1719.  1717.  1714.  1710.
  1703.  1701.  1698.  1695.  1690.  1685.  1684.  1681.  1674.  1674.
  1670.  1666.  1663.  1656.  1652.  1649.  1642.  1640.  1637.  1633.
  1632.  1628.  1627.  1623.  1619.  1618.  1614.  1614.  1610.  1608.
  1608.  1606.  1607.  1610.  1609.  1613.  1612.  1611.  1612.  1614.
  1618.  1623.  1620.  1621.  1623.  1623.  1626.  1630.  1632.  1633.
  1636.  1638.  1640.  1641.  1646.  1646.  1652.  1657.  1659.  1666.
  1667.  1672.  1668.  1676.  1677.  1677.  1681.  1681.  1689.  1700.
  1543.   837.  1482.  1711.  1766.  1742.  1745.  1744.  1743.  1737.
  1743.  1736.  1735.  1732.  1732.  1731.  1730.  1723.  1721.  1720.
  1716.  1709.  1706.  1705.  1700.  1705.  1699.  1699.  1694.  1687.
  1682.  1675.  1671.  1660.  1653.  1641.  1636.  1625.  1619.  1607.
  1596.  1590.  1579.  1573.  1565.  1555.  1553.  1547.  1542.  1533.
  1526.  1521.  1517.  1507.  1501.  1496.  1484.  1484.  1476.  1468.
  1463.  1458.  1454.  1450.  1442.  1435.  1433.  1430.  1422.  1422.
  1412.  1410.  1412.  1408.  1409.  1409.  1406.  1406.  1406.  1403.
  1403.  1406.  1406.  1404.  1403.  1402.  1403.  1405.  1405.  1403.
  1404.  1405.  1404.  1407.  1406.  1406.  1408.  1408.  1410.  1413.
  1412.  1413.  1415.  1418.  1419.  1425.  1424.  1425.  1432.  1430.
  1431.  1438.  1439.  1438.  1444.  1444.  1444.  1445.  1452.  1454.
  1456.  1454.  1454.  1457.  1462.  1460.  1462.  1462.  1463.  1464.
  1467.  1468.  1466.  1467.  1469.  1472.  1474.  1476.  1478.  1479.
  1483.  1485.  1486.  1496.  1499.  1499.  1504.  1505.  1511.  1510.
  1513.  1516.  1516.  1520.  1519.  1520.  1521.  1525.  1523.  1530.
  1531.  1529.  1531.  1534.  1534.  1535.  1538.  1536.  1538.  1538.
  1541.  1541.  1546.  1541.  1546.  1546.  1545.  1547.  1544.  1546.
  1545.  1546.  1540.  1544.  1544.  1538.  1542.  1539.  1541.  1538.
  1536.  1535.  1535.  1536.  1536.  1536.  1533.  1534.  1539.  1539.
  1536.  1538.  1539.  1541.  1537.  1543.  1539.  1544.  1546.  1546.
  1550.  1551.  1555.  1558.  1562.  1565.  1567.  1574.  1576.  1575.
  1575.  1578.  1577.  1578.  1582.  1582.  1586.  1590.  1587.  1586.
  1586.  1584.  1584.  1574.  1578.  1579.  1576.  1575.  1576.  1574.
  1572.  1571.  1572.  1568.  1569.  1570.  1565.  1565.  1567.  1566.
  1569.  1571.  1571.  1564.  1568.  1569.  1572.  1574.  1574.  1573.
  1570.  1570.  1574.  1571.  1573.  1571.  1570.  1573.  1569.  1569.
  1564.  1567.  1566.  1566.  1568.  1561.  1558.  1563.  1561.  1561.
  1561.  1560.  1558.  1558.  1556.  1556.  1558.  1557.  1557.  1558.
  1557.  1558.  1557.  1559.  1559.  1562.  1560.  1561.  1561.  1563.
  1568.  1569.  1567.  1570.  1571.  1574.  1578.  1578.  1577.  1576.
  1584.  1583.  1586.  1581.  1582.  1584.  1588.  1584.  1586.  1589.
  1585.  1592.  1588.  1587.  1590.  1589.  1591.  1592.  1590.  1588.
  1594.  1593.  1593.  1594.  1594.  1596.  1594.  1594.  1596.  1594.
  1596.  1595.]","6 + 2","0","space","NA","NA","space","1466","NA","NA","1466","LinregressResult(slope=-0.41263980562205987, intercept=1691.988069809415, rvalue=-0.53008884540967527, pvalue=5.3638970228778741e-37, stderr=0.029818831188078106)","2","legacy","-0.412639805622","1024","2","48000","-16","experiment","1746.0,1743.0,1743.0,1745.0,1745.0,1743.0,1743.0,1743.0,1747.0,1749.0,1747.0,1744.0,1747.0,1752.0,1754.0,1749.0,1749.0,1751.0,1749.0,1750.0,1753.0,1753.0,1753.0,1753.0,1751.0,1752.0,1753.0,1758.0,1757.0,1755.0,1764.0,1760.0,1758.0,1764.0,1765.0,1769.0,1772.0,1774.0,1779.0,1779.0,1781.0,1781.0,1783.0,1784.0,1783.0,1784.0,1784.0,1781.0,1782.0,1777.0,1776.0,1775.0,1771.0,1769.0,1767.0,1763.0,1759.0,1758.0,1755.0,1753.0,1755.0,1752.0,1746.0,1744.0,1744.0,1742.0,1740.0,1742.0,1741.0,1737.0,1735.0,1730.0,1729.0,1728.0,1724.0,1720.0,1719.0,1717.0,1714.0,1710.0,1703.0,1701.0,1698.0,1695.0,1690.0,1685.0,1684.0,1681.0,1674.0,1674.0,1670.0,1666.0,1663.0,1656.0,1652.0,1649.0,1642.0,1640.0,1637.0,1633.0,1632.0,1628.0,1627.0,1623.0,1619.0,1618.0,1614.0,1614.0,1610.0,1608.0,1608.0,1606.0,1607.0,1610.0,1609.0,1613.0,1612.0,1611.0,1612.0,1614.0,1618.0,1623.0,1620.0,1621.0,1623.0,1623.0,1626.0,1630.0,1632.0,1633.0,1636.0,1638.0,1640.0,1641.0,1646.0,1646.0,1652.0,1657.0,1659.0,1666.0,1667.0,1672.0,1668.0,1676.0,1677.0,1677.0,1681.0,1681.0,1689.0,1700.0,1543.0,0.0,0.0,0.0,0.0,0.0,0.0,0.0,0.0,837.0,1482.0,1711.0,1766.0,1742.0,1745.0,1744.0,1743.0,1737.0,1743.0,1736.0,1735.0,1732.0,1732.0,1731.0,1730.0,1723.0,1721.0,1720.0,1716.0,1709.0,1706.0,1705.0,1700.0,1705.0,1699.0,1699.0,1694.0,1687.0,1682.0,1675.0,1671.0,1660.0,1653.0,1641.0,1636.0,1625.0,1619.0,1607.0,1596.0,1590.0,1579.0,1573.0,1565.0,1555.0,1553.0,1547.0,1542.0,1533.0,1526.0,1521.0,1517.0,1507.0,1501.0,1496.0,1484.0,1484.0,1476.0,1468.0,1463.0,1458.0,1454.0,1450.0,1442.0,1435.0,1433.0,1430.0,1422.0,1422.0,1412.0,1410.0,1412.0,1408.0,1409.0,1409.0,1406.0,1406.0,1406.0,1403.0,1403.0,1406.0,1406.0,1404.0,1403.0,1402.0,1403.0,1405.0,1405.0,1403.0,1404.0,1405.0,1404.0,1407.0,1406.0,1406.0,1408.0,1408.0,1410.0,1413.0,1412.0,1413.0,1415.0,1418.0,1419.0,1425.0,1424.0,1425.0,1432.0,1430.0,1431.0,1438.0,1439.0,1438.0,1444.0,1444.0,1444.0,1445.0,1452.0,1454.0,1456.0,1454.0,1454.0,1457.0,1462.0,1460.0,1462.0,1462.0,1463.0,1464.0,1467.0,1468.0,1466.0,1467.0,1469.0,1472.0,1474.0,1476.0,1478.0,1479.0,1483.0,1485.0,1486.0,1496.0,1499.0,1499.0,1504.0,1505.0,1511.0,1510.0,1513.0,1516.0,1516.0,1520.0,1519.0,1520.0,1521.0,1525.0,1523.0,1530.0,1531.0,1529.0,1531.0,1534.0,1534.0,1535.0,1538.0,1536.0,1538.0,1538.0,1541.0,1541.0,1546.0,1541.0,1546.0,1546.0,1545.0,1547.0,1544.0,1546.0,1545.0,1546.0,1540.0,1544.0,1544.0,1538.0,1542.0,1539.0,1541.0,1538.0,1536.0,1535.0,1535.0,1536.0,1536.0,1536.0,1533.0,1534.0,1539.0,1539.0,1536.0,1538.0,1539.0,1541.0,1537.0,1543.0,1539.0,1544.0,1546.0,1546.0,1550.0,1551.0,1555.0,1558.0,1562.0,1565.0,1567.0,1574.0,1576.0,1575.0,1575.0,1578.0,1577.0,1578.0,1582.0,1582.0,1586.0,1590.0,1587.0,1586.0,1586.0,1584.0,1584.0,1574.0,1578.0,1579.0,1576.0,1575.0,1576.0,1574.0,1572.0,1571.0,1572.0,1568.0,1569.0,1570.0,1565.0,1565.0,1567.0,1566.0,1569.0,1571.0,1571.0,1564.0,1568.0,1569.0,1572.0,1574.0,1574.0,1573.0,1570.0,1570.0,1574.0,1571.0,1573.0,1571.0,1570.0,1573.0,1569.0,1569.0,1564.0,1567.0,1566.0,1566.0,1568.0,1561.0,1558.0,1563.0,1561.0,1561.0,1561.0,1560.0,1558.0,1558.0,1556.0,1556.0,1558.0,1557.0,1557.0,1558.0,1557.0,1558.0,1557.0,1559.0,1559.0,1562.0,1560.0,1561.0,1561.0,1563.0,1568.0,1569.0,1567.0,1570.0,1571.0,1574.0,1578.0,1578.0,1577.0,1576.0,1584.0,1583.0,1586.0,1581.0,1582.0,1584.0,1588.0,1584.0,1586.0,1589.0,1585.0,1592.0,1588.0,1587.0,1590.0,1589.0,1591.0,1592.0,1590.0,1588.0,1594.0,1593.0,1593.0,1594.0,1594.0,1596.0,1594.0,1594.0,1596.0,1594.0,1596.0,1595.0","1","odd","NA","NA","NA","arithmetic","49423","72349","NA","46635","77350","NA","46212","NA","NA","1576","70843","NA","72350","NA","1659","NA","NA","NA","77654","NA","68648","NA","77351","NA","70490","NA","67766","NA","46636","3126","NA","NA","NA","NA","46212","68648","NA","Extended template","0","0","0","yes","1024"
"undefined","undefined","undefined","undefined","black","yes","xpyriment","legacy","legacy","0","uniform","undefined","undefined","0","3","NA","0","3","NA","0","0","0","0","3","NA","3","NA","0","0","NA","NA","3","NA","3","NA","3","NA","3","NA","3","NA","0","0","0","0","NA","NA","0","3","NA","10/18/18 13:39:13","A template containing a practice and an experimental phase","medium","yes","Experiment.osexp","C:\Users\EEGExp\Desktop","no","mono","no","18","no","white","no","Ok","yes","768","legacy","3","3","0","C:/Users/EEGExp/Desktop/subject-1.csv","xpyriment","Kafkaesque Koffka","3.2.5","yes","[ 1559.  1556.  1557.  1562.  1561.  1563.  1565.  1567.  1567.  1571.
  1572.  1573.  1578.  1579.  1581.  1584.  1585.  1583.  1583.  1584.
  1584.  1584.  1587.  1585.  1586.  1592.  1594.  1590.  1592.  1591.
  1593.  1594.  1592.  1593.  1592.  1593.  1590.  1592.  1595.  1596.
  1603.  1599.  1605.  1606.  1608.  1609.  1617.  1616.  1617.  1621.
  1624.  1625.  1628.  1626.  1628.  1632.  1630.  1629.  1627.  1631.
  1630.  1636.  1636.  1634.  1633.  1634.  1635.  1635.  1633.  1632.
  1632.  1634.  1633.  1632.  1633.  1634.  1631.  1626.  1627.  1627.
  1624.  1624.  1623.  1620.  1615.  1615.  1617.  1615.  1608.  1606.
  1607.  1608.  1603.  1603.  1600.  1603.  1594.  1594.  1592.  1593.
  1589.  1583.  1581.  1581.  1581.  1577.  1575.  1573.  1572.  1569.
  1569.  1563.  1566.  1558.  1556.  1556.  1553.  1556.  1557.  1555.
  1553.  1555.  1556.  1556.  1557.  1556.  1559.  1557.  1562.  1561.
  1562.  1571.  1568.  1572.  1572.  1576.  1573.  1579.  1577.  1576.
  1578.  1580.  1578.  1577.  1579.  1579.  1577.  1574.  1571.  1569.
  1567.  1560.  1560.  1554.  1555.  1553.  1554.  1545.  1546.  1541.
  1543.  1538.  1544.  1541.  1535.  1533.  1537.  1534.  1530.  1533.
  1533.  1533.  1530.  1531.  1532.  1532.  1534.  1532.  1528.  1528.
  1525.  1525.  1527.  1532.  1528.  1527.  1526.  1527.  1531.  1533.
  1532.  1538.  1535.  1535.  1538.  1538.  1535.  1535.  1537.  1536.
  1545.  1546.  1539.  1542.  1539.  1543.  1544.  1547.  1546.  1548.
  1549.  1550.  1550.  1546.  1550.  1549.  1548.  1551.  1552.  1555.
  1555.  1555.  1556.  1556.  1555.  1558.  1561.  1565.  1563.  1567.
  1572.  1573.  1580.  1589.  1590.  1594.  1596.  1606.  1605.  1612.
  1619.  1621.  1622.  1627.  1632.  1631.  1631.  1636.  1635.  1636.
  1634.  1634.  1632.  1628.  1625.  1614.  1612.  1605.  1600.  1596.
  1595.  1587.  1581.  1580.  1579.  1579.  1571.  1573.  1572.  1566.
  1567.  1568.  1565.  1564.  1566.  1562.  1572.  1573.   891.   723.
  1278.  1368.  1611.  1634.  1608.  1603.  1607.  1602.  1601.  1601.
  1597.  1600.  1602.  1601.  1603.  1603.  1604.  1599.  1599.  1599.
  1598.  1601.  1599.  1604.  1603.  1599.  1601.  1601.  1599.  1593.
  1591.  1587.  1591.  1582.  1578.  1570.  1567.  1560.  1558.  1548.
  1549.  1545.  1542.  1533.  1532.  1528.  1524.  1524.  1516.  1513.
  1514.  1513.  1504.  1502.  1499.  1503.  1496.  1496.  1490.  1485.
  1478.  1473.  1468.  1461.  1462.  1455.  1449.  1448.  1447.  1441.
  1438.  1428.  1427.  1424.  1420.  1416.  1413.  1408.  1413.  1413.
  1410.  1409.  1406.  1403.  1403.  1400.  1401.  1398.  1399.  1402.
  1401.  1404.  1403.  1402.  1403.  1408.  1407.  1408.  1413.  1415.
  1415.  1419.  1421.  1425.  1424.  1432.  1433.  1434.  1433.  1439.
  1441.  1446.  1443.  1448.  1454.  1454.  1456.  1458.  1457.  1461.
  1459.  1460.  1460.  1462.  1464.  1460.  1463.  1462.  1461.  1462.
  1463.  1464.  1466.  1466.  1466.  1468.  1469.  1477.  1475.  1478.
  1480.  1477.  1482.  1482.  1487.  1490.  1490.  1494.  1494.  1496.
  1496.  1503.  1504.  1505.  1508.  1512.  1514.  1513.  1517.  1517.
  1522.  1526.  1527.  1531.  1534.  1535.  1542.  1545.  1545.  1545.
  1550.  1552.  1552.  1553.  1559.  1563.  1562.  1563.  1564.  1566.
  1569.  1574.  1581.  1584.  1583.  1588.  1588.  1591.  1595.  1599.
  1601.  1605.  1607.  1607.  1608.  1610.  1614.  1619.  1621.  1625.
  1627.  1628.  1635.  1636.  1641.  1642.  1648.  1648.  1656.  1658.
  1658.  1661.  1664.]","6x = 12","0","space","NA","NA","space","1466","NA","NA","1466","LinregressResult(slope=-0.19853319235165717, intercept=1597.4656903972691, rvalue=-0.3522918446403332, pvalue=7.4935977761285735e-16, stderr=0.023802067770212026)","2","legacy","-0.198533192352","1024","2","48000","-16","experiment","1559.0,1556.0,1557.0,1562.0,1561.0,1563.0,1565.0,1567.0,1567.0,1571.0,1572.0,1573.0,1578.0,1579.0,1581.0,1584.0,1585.0,1583.0,1583.0,1584.0,1584.0,1584.0,1587.0,1585.0,1586.0,1592.0,1594.0,1590.0,1592.0,1591.0,1593.0,1594.0,1592.0,1593.0,1592.0,1593.0,1590.0,1592.0,1595.0,1596.0,1603.0,1599.0,1605.0,1606.0,1608.0,1609.0,1617.0,1616.0,1617.0,1621.0,1624.0,1625.0,1628.0,1626.0,1628.0,1632.0,1630.0,1629.0,1627.0,1631.0,1630.0,1636.0,1636.0,1634.0,1633.0,1634.0,1635.0,1635.0,1633.0,1632.0,1632.0,1634.0,1633.0,1632.0,1633.0,1634.0,1631.0,1626.0,1627.0,1627.0,1624.0,1624.0,1623.0,1620.0,1615.0,1615.0,1617.0,1615.0,1608.0,1606.0,1607.0,1608.0,1603.0,1603.0,1600.0,1603.0,1594.0,1594.0,1592.0,1593.0,1589.0,1583.0,1581.0,1581.0,1581.0,1577.0,1575.0,1573.0,1572.0,1569.0,1569.0,1563.0,1566.0,1558.0,1556.0,1556.0,1553.0,1556.0,1557.0,1555.0,1553.0,1555.0,1556.0,1556.0,1557.0,1556.0,1559.0,1557.0,1562.0,1561.0,1562.0,1571.0,1568.0,1572.0,1572.0,1576.0,1573.0,1579.0,1577.0,1576.0,1578.0,1580.0,1578.0,1577.0,1579.0,1579.0,1577.0,1574.0,1571.0,1569.0,1567.0,1560.0,1560.0,1554.0,1555.0,1553.0,1554.0,1545.0,1546.0,1541.0,1543.0,1538.0,1544.0,1541.0,1535.0,1533.0,1537.0,1534.0,1530.0,1533.0,1533.0,1533.0,1530.0,1531.0,1532.0,1532.0,1534.0,1532.0,1528.0,1528.0,1525.0,1525.0,1527.0,1532.0,1528.0,1527.0,1526.0,1527.0,1531.0,1533.0,1532.0,1538.0,1535.0,1535.0,1538.0,1538.0,1535.0,1535.0,1537.0,1536.0,1545.0,1546.0,1539.0,1542.0,1539.0,1543.0,1544.0,1547.0,1546.0,1548.0,1549.0,1550.0,1550.0,1546.0,1550.0,1549.0,1548.0,1551.0,1552.0,1555.0,1555.0,1555.0,1556.0,1556.0,1555.0,1558.0,1561.0,1565.0,1563.0,1567.0,1572.0,1573.0,1580.0,1589.0,1590.0,1594.0,1596.0,1606.0,1605.0,1612.0,1619.0,1621.0,1622.0,1627.0,1632.0,1631.0,1631.0,1636.0,1635.0,1636.0,1634.0,1634.0,1632.0,1628.0,1625.0,1614.0,1612.0,1605.0,1600.0,1596.0,1595.0,1587.0,1581.0,1580.0,1579.0,1579.0,1571.0,1573.0,1572.0,1566.0,1567.0,1568.0,1565.0,1564.0,1566.0,1562.0,1572.0,1573.0,891.0,0.0,0.0,0.0,0.0,0.0,0.0,0.0,723.0,1278.0,1368.0,1611.0,1634.0,1608.0,1603.0,1607.0,1602.0,1601.0,1601.0,1597.0,1600.0,1602.0,1601.0,1603.0,1603.0,1604.0,1599.0,1599.0,1599.0,1598.0,1601.0,1599.0,1604.0,1603.0,1599.0,1601.0,1601.0,1599.0,1593.0,1591.0,1587.0,1591.0,1582.0,1578.0,1570.0,1567.0,1560.0,1558.0,1548.0,1549.0,1545.0,1542.0,1533.0,1532.0,1528.0,1524.0,1524.0,1516.0,1513.0,1514.0,1513.0,1504.0,1502.0,1499.0,1503.0,1496.0,1496.0,1490.0,1485.0,1478.0,1473.0,1468.0,1461.0,1462.0,1455.0,1449.0,1448.0,1447.0,1441.0,1438.0,1428.0,1427.0,1424.0,1420.0,1416.0,1413.0,1408.0,1413.0,1413.0,1410.0,1409.0,1406.0,1403.0,1403.0,1400.0,1401.0,1398.0,1399.0,1402.0,1401.0,1404.0,1403.0,1402.0,1403.0,1408.0,1407.0,1408.0,1413.0,1415.0,1415.0,1419.0,1421.0,1425.0,1424.0,1432.0,1433.0,1434.0,1433.0,1439.0,1441.0,1446.0,1443.0,1448.0,1454.0,1454.0,1456.0,1458.0,1457.0,1461.0,1459.0,1460.0,1460.0,1462.0,1464.0,1460.0,1463.0,1462.0,1461.0,1462.0,1463.0,1464.0,1466.0,1466.0,1466.0,1468.0,1469.0,1477.0,1475.0,1478.0,1480.0,1477.0,1482.0,1482.0,1487.0,1490.0,1490.0,1494.0,1494.0,1496.0,1496.0,1503.0,1504.0,1505.0,1508.0,1512.0,1514.0,1513.0,1517.0,1517.0,1522.0,1526.0,1527.0,1531.0,1534.0,1535.0,1542.0,1545.0,1545.0,1545.0,1550.0,1552.0,1552.0,1553.0,1559.0,1563.0,1562.0,1563.0,1564.0,1566.0,1569.0,1574.0,1581.0,1584.0,1583.0,1588.0,1588.0,1591.0,1595.0,1599.0,1601.0,1605.0,1607.0,1607.0,1608.0,1610.0,1614.0,1619.0,1621.0,1625.0,1627.0,1628.0,1635.0,1636.0,1641.0,1642.0,1648.0,1648.0,1656.0,1658.0,1658.0,1661.0,1664.0","1","odd","NA","NA","NA","arithmetic","49423","82431","NA","46635","87432","NA","46212","NA","NA","1576","80927","NA","82432","NA","1659","NA","NA","NA","87736","NA","78553","NA","87433","NA","80575","NA","77671","NA","46636","3126","NA","NA","NA","NA","46212","78553","NA","Extended template","0","0","0","yes","1024"
"undefined","undefined","undefined","undefined","black","yes","xpyriment","legacy","legacy","0","uniform","undefined","undefined","0","4","NA","0","4","NA","0","0","0","0","4","NA","4","NA","0","0","NA","NA","4","NA","4","NA","4","NA","4","NA","4","NA","0","0","0","0","NA","NA","0","4","NA","10/18/18 13:39:13","A template containing a practice and an experimental phase","hard","yes","Experiment.osexp","C:\Users\EEGExp\Desktop","no","mono","no","18","no","white","no","Ok","yes","768","legacy","4","4","0","C:/Users/EEGExp/Desktop/subject-1.csv","xpyriment","Kafkaesque Koffka","3.2.5","yes","[ 1743.  1740.  1742.  1741.  1742.  1739.  1738.  1733.  1736.  1733.
  1741.  1740.  1737.  1735.  1737.  1735.  1736.  1736.  1737.  1738.
  1743.  1740.  1738.  1743.  1745.  1746.  1751.  1750.  1754.  1757.
  1760.  1760.  1767.  1769.  1769.  1774.  1775.  1776.  1781.  1782.
  1783.  1787.  1791.  1794.  1793.  1797.  1799.  1800.  1801.  1810.
  1809.  1811.  1810.  1812.  1812.  1806.  1809.  1804.  1801.  1798.
  1796.  1790.  1790.  1782.  1783.  1776.  1775.  1771.  1768.  1761.
  1758.  1756.  1752.  1746.  1743.  1740.  1740.  1737.  1729.  1725.
  1725.  1720.  1714.  1713.  1713.  1706.  1705.  1703.  1701.  1696.
  1698.  1693.  1692.  1687.  1689.  1687.  1684.  1681.  1679.  1679.
  1677.  1677.  1673.  1671.  1668.  1669.  1669.  1668.  1666.  1665.
  1670.  1668.  1668.  1671.  1673.  1675.  1675.  1678.  1683.  1683.
  1686.  1686.  1683.  1688.  1685.  1685.  1688.  1687.  1687.  1688.
  1691.  1689.  1685.  1686.  1688.  1683.  1683.  1683.  1680.  1684.
  1683.  1681.  1680.  1681.  1682.  1677.  1678.  1679.  1682.  1680.
  1682.  1678.  1682.  1684.  1682.  1684.  1684.  1685.  1689.  1689.
  1690.  1690.  1691.  1692.  1694.  1693.  1692.  1698.  1696.  1696.
  1697.  1689.  1693.  1694.  1688.  1691.  1688.  1686.  1683.  1683.
  1682.  1679.  1681.  1677.  1676.  1680.  1680.  1678.  1680.  1680.
  1685.  1698.  1693.  1690.  1689.  1688.  1694.  1690.  1689.  1692.
  1690.  1691.  1692.  1694.  1691.  1691.  1691.  1692.  1695.  1696.
  1695.  1700.  1704.  1701.  1703.  1702.  1701.  1705.  1705.  1704.
  1703.  1701.  1704.  1703.  1700.  1703.  1699.  1698.  1700.  1701.
  1701.  1699.  1699.  1700.  1694.  1693.  1690.  1686.  1684.  1680.
  1677.  1673.  1670.  1666.  1659.  1655.  1655.  1652.  1650.  1642.
  1643.  1639.  1639.  1635.  1635.  1637.  1633.  1633.  1624.  1624.
  1622.  1620.  1621.  1615.  1614.  1606.  1605.  1601.  1597.  1599.
  1597.  1592.  1594.  1593.  1592.  1586.  1585.  1589.  1582.  1578.
  1576.  1574.  1568.  1568.  1566.  1567.  1566.  1567.  1571.  1570.
  1571.  1572.  1575.  1574.  1580.  1586.  1587.  1588.  1587.  1591.
  1593.  1594.  1595.  1599.  1598.  1603.  1602.  1599.  1605.  1607.
  1607.  1609.  1610.  1614.  1614.  1618.  1623.  1628.  1627.  1632.
  1634.  1632.  1631.  1636.  1634.  1630.  1631.  1629.  1630.  1626.
  1626.  1623.  1617.  1613.  1611.  1602.  1601.  1600.  1598.  1590.
  1589.  1587.  1584.  1580.  1580.  1571.  1575.  1576.  1572.  1571.
  1570.  1570.  1569.  1566.  1564.  1569.  1567.  1568.  1573.  1572.
  1571.  1576.  1577.  1580.  1575.  1576.  1578.  1578.  1580.  1583.
  1578.  1581.  1579.  1578.  1578.  1574.  1576.  1573.  1572.  1570.
  1565.  1566.  1564.  1560.  1556.  1557.  1555.  1554.  1552.  1553.
  1549.  1549.  1548.  1546.  1547.  1546.  1544.  1544.  1545.  1540.
  1543.  1543.  1542.  1543.  1544.  1542.  1543.  1543.  1539.  1538.
  1534.  1531.  1528.  1522.  1522.  1521.  1520.  1515.  1515.  1513.
  1512.  1516.  1511.  1509.  1512.  1511.  1512.  1509.  1510.  1514.
  1509.  1509.  1510.  1508.  1511.  1508.  1507.  1507.  1505.  1503.
  1499.  1499.  1497.  1499.  1500.  1502.  1503.  1505.  1504.  1504.
  1505.  1501.  1500.  1498.  1504.  1506.  1505.  1506.  1504.  1504.
  1509.  1512.  1514.  1517.  1518.  1518.  1522.  1524.  1525.  1528.
  1529.  1528.  1532.  1532.  1536.  1539.  1543.  1544.  1543.  1541.
  1545.  1546.  1545.  1545.  1544.  1544.  1542.  1541.  1542.  1538.
  1538.  1541.  1542.  1540.  1535.  1533.  1532.  1534.  1529.  1528.]","3x - 5 = 10","0","space","NA","NA","space","1466","NA","NA","1466","LinregressResult(slope=-0.55379914319657275, intercept=1775.9786853707415, rvalue=-0.94260131260978852, pvalue=2.253172558633202e-239, stderr=0.0087912855641889259)","2","legacy","-0.553799143197","1024","2","48000","-16","experiment","1743.0,1740.0,1742.0,1741.0,1742.0,1739.0,1738.0,1733.0,1736.0,1733.0,1741.0,1740.0,1737.0,1735.0,1737.0,1735.0,1736.0,1736.0,1737.0,1738.0,1743.0,1740.0,1738.0,1743.0,1745.0,1746.0,1751.0,1750.0,1754.0,1757.0,1760.0,1760.0,1767.0,1769.0,1769.0,1774.0,1775.0,1776.0,1781.0,1782.0,1783.0,1787.0,1791.0,1794.0,1793.0,1797.0,1799.0,1800.0,1801.0,1810.0,1809.0,1811.0,1810.0,1812.0,1812.0,1806.0,1809.0,1804.0,1801.0,1798.0,1796.0,1790.0,1790.0,1782.0,1783.0,1776.0,1775.0,1771.0,1768.0,1761.0,1758.0,1756.0,1752.0,1746.0,1743.0,1740.0,1740.0,1737.0,1729.0,1725.0,1725.0,1720.0,1714.0,1713.0,1713.0,1706.0,1705.0,1703.0,1701.0,1696.0,1698.0,1693.0,1692.0,1687.0,1689.0,1687.0,1684.0,1681.0,1679.0,1679.0,1677.0,1677.0,1673.0,1671.0,1668.0,1669.0,1669.0,1668.0,1666.0,1665.0,1670.0,1668.0,1668.0,1671.0,1673.0,1675.0,1675.0,1678.0,1683.0,1683.0,1686.0,1686.0,1683.0,1688.0,1685.0,1685.0,1688.0,1687.0,1687.0,1688.0,1691.0,1689.0,1685.0,1686.0,1688.0,1683.0,1683.0,1683.0,1680.0,1684.0,1683.0,1681.0,1680.0,1681.0,1682.0,1677.0,1678.0,1679.0,1682.0,1680.0,1682.0,1678.0,1682.0,1684.0,1682.0,1684.0,1684.0,1685.0,1689.0,1689.0,1690.0,1690.0,1691.0,1692.0,1694.0,1693.0,1692.0,1698.0,1696.0,1696.0,1697.0,1689.0,1693.0,1694.0,1688.0,1691.0,1688.0,1686.0,1683.0,1683.0,1682.0,1679.0,1681.0,1677.0,1676.0,1680.0,1680.0,1678.0,1680.0,1680.0,1685.0,1698.0,1693.0,1690.0,1689.0,1688.0,1694.0,1690.0,1689.0,1692.0,1690.0,1691.0,1692.0,1694.0,1691.0,1691.0,1691.0,1692.0,1695.0,1696.0,1695.0,1700.0,1704.0,1701.0,1703.0,1702.0,1701.0,1705.0,1705.0,1704.0,1703.0,1701.0,1704.0,1703.0,1700.0,1703.0,1699.0,1698.0,1700.0,1701.0,1701.0,1699.0,1699.0,1700.0,1694.0,1693.0,1690.0,1686.0,1684.0,1680.0,1677.0,1673.0,1670.0,1666.0,1659.0,1655.0,1655.0,1652.0,1650.0,1642.0,1643.0,1639.0,1639.0,1635.0,1635.0,1637.0,1633.0,1633.0,1624.0,1624.0,1622.0,1620.0,1621.0,1615.0,1614.0,1606.0,1605.0,1601.0,1597.0,1599.0,1597.0,1592.0,1594.0,1593.0,1592.0,1586.0,1585.0,1589.0,1582.0,1578.0,1576.0,1574.0,1568.0,1568.0,1566.0,1567.0,1566.0,1567.0,1571.0,1570.0,1571.0,1572.0,1575.0,1574.0,1580.0,1586.0,1587.0,1588.0,1587.0,1591.0,1593.0,1594.0,1595.0,1599.0,1598.0,1603.0,1602.0,1599.0,1605.0,1607.0,1607.0,1609.0,1610.0,1614.0,1614.0,1618.0,1623.0,1628.0,1627.0,1632.0,1634.0,1632.0,1631.0,1636.0,1634.0,1630.0,1631.0,1629.0,1630.0,1626.0,1626.0,1623.0,1617.0,1613.0,1611.0,1602.0,1601.0,1600.0,1598.0,1590.0,1589.0,1587.0,1584.0,1580.0,1580.0,1571.0,1575.0,1576.0,1572.0,1571.0,1570.0,1570.0,1569.0,1566.0,1564.0,1569.0,1567.0,1568.0,1573.0,1572.0,1571.0,1576.0,1577.0,1580.0,1575.0,1576.0,1578.0,1578.0,1580.0,1583.0,1578.0,1581.0,1579.0,1578.0,1578.0,1574.0,1576.0,1573.0,1572.0,1570.0,1565.0,1566.0,1564.0,1560.0,1556.0,1557.0,1555.0,1554.0,1552.0,1553.0,1549.0,1549.0,1548.0,1546.0,1547.0,1546.0,1544.0,1544.0,1545.0,1540.0,1543.0,1543.0,1542.0,1543.0,1544.0,1542.0,1543.0,1543.0,1539.0,1538.0,1534.0,1531.0,1528.0,1522.0,1522.0,1521.0,1520.0,1515.0,1515.0,1513.0,1512.0,1516.0,1511.0,1509.0,1512.0,1511.0,1512.0,1509.0,1510.0,1514.0,1509.0,1509.0,1510.0,1508.0,1511.0,1508.0,1507.0,1507.0,1505.0,1503.0,1499.0,1499.0,1497.0,1499.0,1500.0,1502.0,1503.0,1505.0,1504.0,1504.0,1505.0,1501.0,1500.0,1498.0,1504.0,1506.0,1505.0,1506.0,1504.0,1504.0,1509.0,1512.0,1514.0,1517.0,1518.0,1518.0,1522.0,1524.0,1525.0,1528.0,1529.0,1528.0,1532.0,1532.0,1536.0,1539.0,1543.0,1544.0,1543.0,1541.0,1545.0,1546.0,1545.0,1545.0,1544.0,1544.0,1542.0,1541.0,1542.0,1538.0,1538.0,1541.0,1542.0,1540.0,1535.0,1533.0,1532.0,1534.0,1529.0,1528.0","1","odd","NA","NA","NA","arithmetic","49423","92270","NA","46635","97271","NA","46212","NA","NA","1576","90765","NA","92271","NA","1659","NA","NA","NA","97576","NA","88630","NA","97272","NA","90412","NA","87751","NA","46636","3126","NA","NA","NA","NA","46212","88630","NA","Extended template","0","0","0","yes","1024"
"undefined","undefined","undefined","undefined","black","yes","xpyriment","legacy","legacy","0","uniform","undefined","undefined","0","5","NA","0","5","NA","0","0","0","0","5","NA","5","NA","0","0","NA","NA","5","NA","5","NA","5","NA","5","NA","5","NA","0","0","0","0","NA","NA","0","5","NA","10/18/18 13:39:13","A template containing a practice and an experimental phase","hard","yes","Experiment.osexp","C:\Users\EEGExp\Desktop","no","mono","no","18","no","white","no","Ok","yes","768","legacy","5","5","0","C:/Users/EEGExp/Desktop/subject-1.csv","xpyriment","Kafkaesque Koffka","3.2.5","yes","[ 1544.  1545.  1544.  1546.  1548.  1549.  1548.  1549.  1552.  1552.
  1552.  1553.  1553.  1551.  1553.  1556.  1556.  1555.  1558.  1561.
  1560.  1562.  1564.  1567.  1571.  1572.  1571.  1573.  1580.  1579.
  1579.  1584.  1588.  1590.  1591.  1596.  1599.  1597.  1599.  1601.
  1604.  1602.  1605.  1606.  1605.  1606.  1603.  1607.  1610.  1607.
  1609.  1604.  1604.  1604.  1602.  1601.  1598.  1598.  1593.  1590.
  1584.  1582.  1580.  1578.  1573.  1569.  1569.  1567.  1561.  1560.
  1556.  1550.  1547.  1548.  1540.  1540.  1540.  1539.  1534.  1536.
  1535.  1534.  1534.  1532.  1532.  1531.  1531.  1533.  1533.  1532.
  1535.  1533.  1533.  1531.  1532.  1530.  1530.  1534.  1532.  1534.
  1534.  1537.  1537.  1539.  1540.  1542.  1540.  1542.  1546.  1547.
  1545.  1545.  1541.  1542.  1545.  1549.  1551.  1550.  1550.  1551.
  1551.  1553.  1555.  1560.  1563.  1560.  1565.  1565.  1566.  1571.
  1572.  1577.  1577.  1580.  1582.  1586.  1582.  1587.  1588.  1586.
  1589.  1587.  1589.  1587.  1587.  1590.  1592.  1588.  1593.  1591.
  1589.  1590.  1588.  1594.  1591.  1591.  1595.  1591.  1594.  1592.
  1594.  1596.  1600.  1601.  1604.  1605.  1608.  1606.  1610.  1610.
  1610.  1612.  1613.  1613.  1614.  1613.  1612.  1615.  1613.  1613.
  1617.  1614.  1615.  1615.  1621.  1622.  1624.  1622.  1622.  1624.
  1628.  1629.  1629.  1625.  1625.  1624.  1621.  1621.  1619.  1618.
  1616.  1612.  1607.  1609.  1605.  1603.  1602.  1600.  1599.  1598.
  1593.  1592.  1590.  1590.  1590.  1591.  1587.  1588.  1588.  1584.
  1583.  1582.  1579.  1579.  1576.  1580.  1576.  1573.  1574.  1567.
  1567.  1568.  1564.  1558.  1556.  1557.  1554.  1552.  1551.  1549.
  1546.  1544.  1537.  1535.  1533.  1532.  1525.  1525.  1523.  1518.
  1515.  1515.  1514.  1513.  1509.  1509.  1507.  1504.  1503.  1500.
  1496.  1494.  1490.  1492.  1486.  1485.  1479.  1478.  1478.  1479.
  1479.  1476.  1473.  1474.  1472.  1470.  1472.  1470.  1469.  1472.
  1470.  1467.  1468.  1470.  1466.  1465.  1465.  1466.  1470.  1468.
  1471.  1475.  1473.  1478.  1480.  1482.  1483.  1487.  1491.  1493.
  1493.  1492.  1497.  1500.  1500.  1501.  1501.  1503.  1502.  1503.
  1502.  1507.  1505.  1506.  1504.  1512.  1504.  1502.  1503.  1501.
  1498.  1498.  1499.  1493.  1496.  1491.  1489.  1490.  1489.  1487.
  1488.  1487.  1485.  1484.  1481.  1487.  1484.  1484.  1484.  1484.
  1481.  1482.  1483.  1479.  1485.  1486.  1485.  1488.  1491.  1491.
  1493.  1496.  1504.  1507.  1511.  1510.  1510.  1514.  1518.  1524.
  1526.  1530.  1530.  1529.  1530.  1530.  1532.  1528.  1528.  1532.
  1529.  1530.  1525.  1521.  1520.  1521.  1518.  1517.  1515.  1509.
  1509.  1508.  1504.  1507.  1505.  1503.  1501.  1505.  1499.  1499.
  1500.  1503.  1502.  1503.  1506.  1504.  1505.  1506.  1507.  1508.
  1507.  1508.  1508.  1506.  1507.  1510.  1507.  1507.  1508.  1505.
  1506.  1501.  1505.  1505.  1504.  1504.  1503.  1496.  1498.  1494.
  1493.  1486.  1488.  1486.  1489.  1487.  1484.  1483.  1484.  1482.
  1481.  1481.  1481.  1481.  1478.  1479.  1481.  1479.  1478.  1477.
  1478.  1479.  1475.  1476.  1476.  1475.  1476.  1475.  1475.  1475.
  1479.  1481.  1484.  1483.  1486.  1486.  1485.  1488.  1488.  1491.
  1493.  1492.  1492.  1494.  1495.  1493.  1497.  1498.  1499.  1501.
  1501.  1498.  1502.  1501.  1502.  1505.  1501.  1504.  1503.  1507.
  1507.  1502.  1501.  1496.  1502.  1498.  1496.  1498.  1497.  1491.
  1496.  1492.  1491.  1498.  1496.  1497.  1500.  1498.  1502.  1502.]","3x - 8 = 7","0","space","NA","NA","space","1466","NA","NA","1466","LinregressResult(slope=-0.22492323569294279, intercept=1591.5752705410821, rvalue=-0.70255300583839164, pvalue=1.3445840144120665e-75, stderr=0.010209293002748686)","2","legacy","-0.224923235693","1024","2","48000","-16","experiment","1544.0,1545.0,1544.0,1546.0,1548.0,1549.0,1548.0,1549.0,1552.0,1552.0,1552.0,1553.0,1553.0,1551.0,1553.0,1556.0,1556.0,1555.0,1558.0,1561.0,1560.0,1562.0,1564.0,1567.0,1571.0,1572.0,1571.0,1573.0,1580.0,1579.0,1579.0,1584.0,1588.0,1590.0,1591.0,1596.0,1599.0,1597.0,1599.0,1601.0,1604.0,1602.0,1605.0,1606.0,1605.0,1606.0,1603.0,1607.0,1610.0,1607.0,1609.0,1604.0,1604.0,1604.0,1602.0,1601.0,1598.0,1598.0,1593.0,1590.0,1584.0,1582.0,1580.0,1578.0,1573.0,1569.0,1569.0,1567.0,1561.0,1560.0,1556.0,1550.0,1547.0,1548.0,1540.0,1540.0,1540.0,1539.0,1534.0,1536.0,1535.0,1534.0,1534.0,1532.0,1532.0,1531.0,1531.0,1533.0,1533.0,1532.0,1535.0,1533.0,1533.0,1531.0,1532.0,1530.0,1530.0,1534.0,1532.0,1534.0,1534.0,1537.0,1537.0,1539.0,1540.0,1542.0,1540.0,1542.0,1546.0,1547.0,1545.0,1545.0,1541.0,1542.0,1545.0,1549.0,1551.0,1550.0,1550.0,1551.0,1551.0,1553.0,1555.0,1560.0,1563.0,1560.0,1565.0,1565.0,1566.0,1571.0,1572.0,1577.0,1577.0,1580.0,1582.0,1586.0,1582.0,1587.0,1588.0,1586.0,1589.0,1587.0,1589.0,1587.0,1587.0,1590.0,1592.0,1588.0,1593.0,1591.0,1589.0,1590.0,1588.0,1594.0,1591.0,1591.0,1595.0,1591.0,1594.0,1592.0,1594.0,1596.0,1600.0,1601.0,1604.0,1605.0,1608.0,1606.0,1610.0,1610.0,1610.0,1612.0,1613.0,1613.0,1614.0,1613.0,1612.0,1615.0,1613.0,1613.0,1617.0,1614.0,1615.0,1615.0,1621.0,1622.0,1624.0,1622.0,1622.0,1624.0,1628.0,1629.0,1629.0,1625.0,1625.0,1624.0,1621.0,1621.0,1619.0,1618.0,1616.0,1612.0,1607.0,1609.0,1605.0,1603.0,1602.0,1600.0,1599.0,1598.0,1593.0,1592.0,1590.0,1590.0,1590.0,1591.0,1587.0,1588.0,1588.0,1584.0,1583.0,1582.0,1579.0,1579.0,1576.0,1580.0,1576.0,1573.0,1574.0,1567.0,1567.0,1568.0,1564.0,1558.0,1556.0,1557.0,1554.0,1552.0,1551.0,1549.0,1546.0,1544.0,1537.0,1535.0,1533.0,1532.0,1525.0,1525.0,1523.0,1518.0,1515.0,1515.0,1514.0,1513.0,1509.0,1509.0,1507.0,1504.0,1503.0,1500.0,1496.0,1494.0,1490.0,1492.0,1486.0,1485.0,1479.0,1478.0,1478.0,1479.0,1479.0,1476.0,1473.0,1474.0,1472.0,1470.0,1472.0,1470.0,1469.0,1472.0,1470.0,1467.0,1468.0,1470.0,1466.0,1465.0,1465.0,1466.0,1470.0,1468.0,1471.0,1475.0,1473.0,1478.0,1480.0,1482.0,1483.0,1487.0,1491.0,1493.0,1493.0,1492.0,1497.0,1500.0,1500.0,1501.0,1501.0,1503.0,1502.0,1503.0,1502.0,1507.0,1505.0,1506.0,1504.0,1512.0,1504.0,1502.0,1503.0,1501.0,1498.0,1498.0,1499.0,1493.0,1496.0,1491.0,1489.0,1490.0,1489.0,1487.0,1488.0,1487.0,1485.0,1484.0,1481.0,1487.0,1484.0,1484.0,1484.0,1484.0,1481.0,1482.0,1483.0,1479.0,1485.0,1486.0,1485.0,1488.0,1491.0,1491.0,1493.0,1496.0,1504.0,1507.0,1511.0,1510.0,1510.0,1514.0,1518.0,1524.0,1526.0,1530.0,1530.0,1529.0,1530.0,1530.0,1532.0,1528.0,1528.0,1532.0,1529.0,1530.0,1525.0,1521.0,1520.0,1521.0,1518.0,1517.0,1515.0,1509.0,1509.0,1508.0,1504.0,1507.0,1505.0,1503.0,1501.0,1505.0,1499.0,1499.0,1500.0,1503.0,1502.0,1503.0,1506.0,1504.0,1505.0,1506.0,1507.0,1508.0,1507.0,1508.0,1508.0,1506.0,1507.0,1510.0,1507.0,1507.0,1508.0,1505.0,1506.0,1501.0,1505.0,1505.0,1504.0,1504.0,1503.0,1496.0,1498.0,1494.0,1493.0,1486.0,1488.0,1486.0,1489.0,1487.0,1484.0,1483.0,1484.0,1482.0,1481.0,1481.0,1481.0,1481.0,1478.0,1479.0,1481.0,1479.0,1478.0,1477.0,1478.0,1479.0,1475.0,1476.0,1476.0,1475.0,1476.0,1475.0,1475.0,1475.0,1479.0,1481.0,1484.0,1483.0,1486.0,1486.0,1485.0,1488.0,1488.0,1491.0,1493.0,1492.0,1492.0,1494.0,1495.0,1493.0,1497.0,1498.0,1499.0,1501.0,1501.0,1498.0,1502.0,1501.0,1502.0,1505.0,1501.0,1504.0,1503.0,1507.0,1507.0,1502.0,1501.0,1496.0,1502.0,1498.0,1496.0,1498.0,1497.0,1491.0,1496.0,1492.0,1491.0,1498.0,1496.0,1497.0,1500.0,1498.0,1502.0,1502.0","1","odd","NA","NA","NA","arithmetic","49423","102437","NA","46635","107438","NA","46212","NA","NA","1576","100931","NA","102438","NA","1659","NA","NA","NA","107743","NA","98468","NA","107439","NA","100579","NA","97589","NA","46636","3126","NA","NA","NA","NA","46212","98468","NA","Extended template","0","0","0","yes","1024"
"undefined","undefined","undefined","undefined","black","yes","xpyriment","legacy","legacy","0","uniform","undefined","undefined","0","6","NA","0","6","NA","0","0","0","0","6","NA","6","NA","0","0","NA","NA","6","NA","6","NA","6","NA","6","NA","6","NA","0","0","0","0","NA","NA","0","6","NA","10/18/18 13:39:13","A template containing a practice and an experimental phase","medium","yes","Experiment.osexp","C:\Users\EEGExp\Desktop","no","mono","no","18","no","white","no","Ok","yes","768","legacy","6","6","0","C:/Users/EEGExp/Desktop/subject-1.csv","xpyriment","Kafkaesque Koffka","3.2.5","yes","[ 1365.  1357.  1354.  1353.  1348.  1347.  1341.  1337.  1333.  1327.
  1327.  1321.  1316.  1313.  1311.  1309.  1304.  1305.  1300.  1298.
  1295.  1295.  1291.  1290.  1287.  1287.  1284.  1280.  1281.  1276.
  1277.  1271.  1274.  1273.  1272.  1273.  1272.  1273.  1270.  1270.
  1268.  1273.  1273.  1274.  1275.  1275.  1277.  1279.  1282.  1282.
  1288.  1287.  1285.  1288.  1289.  1290.  1294.  1294.  1292.  1288.
  1288.  1293.  1295.  1296.  1296.  1296.  1297.  1297.  1304.  1302.
  1307.  1305.  1309.  1308.  1313.  1315.  1318.  1319.  1323.  1325.
  1325.  1328.  1329.  1333.  1336.  1336.  1341.  1341.  1343.  1345.
  1346.  1347.  1349.  1352.  1353.  1352.  1353.  1354.  1356.  1358.
  1357.  1362.  1363.  1363.  1359.  1360.  1366.  1367.  1364.  1370.
  1372.  1373.  1373.  1375.  1381.  1384.  1386.  1388.  1389.  1389.
  1398.  1399.  1402.  1405.  1409.  1412.  1413.  1418.  1419.  1422.
  1423.  1426.  1429.  1435.  1434.  1436.  1439.  1440.  1446.  1449.
  1448.  1452.  1452.  1454.  1457.  1455.  1458.  1458.  1458.  1459.
  1459.  1462.  1460.  1465.  1461.  1462.  1463.  1464.  1469.  1468.
  1468.  1467.  1471.  1474.  1474.  1478.  1482.  1481.  1487.  1486.
  1485.  1486.  1493.  1493.  1493.  1491.  1494.  1492.  1492.  1493.
  1494.  1492.  1489.  1487.  1487.  1488.  1484.  1481.  1482.  1480.
  1475.  1477.  1470.  1470.  1466.  1465.  1464.  1460.  1462.  1460.
  1459.  1456.  1456.  1454.  1453.  1449.  1451.  1449.  1447.  1449.
  1451.  1451.  1452.  1454.  1459.  1457.  1458.  1461.  1462.  1462.
  1466.  1474.  1470.  1473.  1475.  1477.  1483.  1485.  1488.  1490.
  1497.  1497.  1495.  1498.  1504.  1504.  1509.  1513.  1515.  1515.
  1520.  1521.  1520.  1524.  1524.  1525.  1525.  1525.  1524.  1525.
  1523.  1521.  1522.  1521.  1522.  1518.  1520.  1517.  1516.  1515.
  1510.  1511.  1511.  1511.  1507.  1511.  1509.  1507.  1508.  1500.
  1503.  1503.  1503.  1500.  1504.  1506.  1505.  1506.  1505.  1508.
  1511.  1508.  1512.  1512.  1511.  1515.  1512.  1515.  1518.  1517.
  1517.  1522.  1523.  1522.  1527.  1524.  1528.  1530.  1531.  1534.
  1536.  1542.  1541.  1536.  1541.  1543.  1541.  1541.  1540.  1540.
  1539.  1536.  1537.  1534.  1534.  1531.  1528.  1530.  1526.  1525.
  1524.  1523.  1520.  1519.  1520.  1518.  1518.  1515.  1511.  1511.
  1511.  1507.  1503.  1501.  1502.  1502.  1500.  1499.  1497.  1496.
  1496.  1500.  1499.  1497.  1494.  1497.  1495.  1489.  1492.  1488.
  1487.  1483.  1482.  1480.  1482.  1476.  1476.  1474.  1473.  1471.
  1475.  1470.  1467.  1468.  1466.  1467.  1468.  1469.  1470.  1472.
  1467.  1470.  1471.  1472.  1474.  1475.  1476.  1481.  1484.  1485.
  1484.  1485.  1486.  1489.  1493.  1489.  1490.  1487.  1488.  1488.
  1489.  1497.  1495.  1491.  1488.  1489.  1483.  1480.  1481.  1478.
  1480.  1478.  1476.  1471.  1472.  1471.  1470.  1467.  1468.  1466.
  1466.  1466.  1464.  1468.  1463.  1461.  1459.  1458.  1460.  1463.
  1460.  1456.  1458.  1455.  1457.  1456.  1455.  1455.  1454.  1456.
  1456.  1458.  1456.  1456.  1462.  1460.  1460.  1462.  1465.  1464.
  1466.  1469.  1470.  1473.  1474.  1477.  1481.  1481.  1483.  1484.
  1486.  1489.  1489.  1492.  1493.  1499.  1498.  1499.  1506.  1505.
  1509.  1513.  1514.  1520.  1522.  1524.  1527.  1529.  1529.  1534.
  1535.  1534.  1535.  1535.  1535.  1536.  1532.  1533.  1536.  1536.
  1532.  1537.  1536.  1536.  1540.  1541.  1540.  1544.  1546.  1548.
  1548.  1553.  1554.  1557.  1560.  1563.  1566.  1569.  1572.  1576.]","7x = 28","0","space","NA","NA","space","1466","NA","NA","1466","LinregressResult(slope=0.44110736442945775, intercept=1338.7066052104208, rvalue=0.7904685427682161, pvalue=4.3099182718036782e-108, stderr=0.015316269867416724)","2","legacy","0.441107364429","1024","2","48000","-16","experiment","1365.0,1357.0,1354.0,1353.0,1348.0,1347.0,1341.0,1337.0,1333.0,1327.0,1327.0,1321.0,1316.0,1313.0,1311.0,1309.0,1304.0,1305.0,1300.0,1298.0,1295.0,1295.0,1291.0,1290.0,1287.0,1287.0,1284.0,1280.0,1281.0,1276.0,1277.0,1271.0,1274.0,1273.0,1272.0,1273.0,1272.0,1273.0,1270.0,1270.0,1268.0,1273.0,1273.0,1274.0,1275.0,1275.0,1277.0,1279.0,1282.0,1282.0,1288.0,1287.0,1285.0,1288.0,1289.0,1290.0,1294.0,1294.0,1292.0,1288.0,1288.0,1293.0,1295.0,1296.0,1296.0,1296.0,1297.0,1297.0,1304.0,1302.0,1307.0,1305.0,1309.0,1308.0,1313.0,1315.0,1318.0,1319.0,1323.0,1325.0,1325.0,1328.0,1329.0,1333.0,1336.0,1336.0,1341.0,1341.0,1343.0,1345.0,1346.0,1347.0,1349.0,1352.0,1353.0,1352.0,1353.0,1354.0,1356.0,1358.0,1357.0,1362.0,1363.0,1363.0,1359.0,1360.0,1366.0,1367.0,1364.0,1370.0,1372.0,1373.0,1373.0,1375.0,1381.0,1384.0,1386.0,1388.0,1389.0,1389.0,1398.0,1399.0,1402.0,1405.0,1409.0,1412.0,1413.0,1418.0,1419.0,1422.0,1423.0,1426.0,1429.0,1435.0,1434.0,1436.0,1439.0,1440.0,1446.0,1449.0,1448.0,1452.0,1452.0,1454.0,1457.0,1455.0,1458.0,1458.0,1458.0,1459.0,1459.0,1462.0,1460.0,1465.0,1461.0,1462.0,1463.0,1464.0,1469.0,1468.0,1468.0,1467.0,1471.0,1474.0,1474.0,1478.0,1482.0,1481.0,1487.0,1486.0,1485.0,1486.0,1493.0,1493.0,1493.0,1491.0,1494.0,1492.0,1492.0,1493.0,1494.0,1492.0,1489.0,1487.0,1487.0,1488.0,1484.0,1481.0,1482.0,1480.0,1475.0,1477.0,1470.0,1470.0,1466.0,1465.0,1464.0,1460.0,1462.0,1460.0,1459.0,1456.0,1456.0,1454.0,1453.0,1449.0,1451.0,1449.0,1447.0,1449.0,1451.0,1451.0,1452.0,1454.0,1459.0,1457.0,1458.0,1461.0,1462.0,1462.0,1466.0,1474.0,1470.0,1473.0,1475.0,1477.0,1483.0,1485.0,1488.0,1490.0,1497.0,1497.0,1495.0,1498.0,1504.0,1504.0,1509.0,1513.0,1515.0,1515.0,1520.0,1521.0,1520.0,1524.0,1524.0,1525.0,1525.0,1525.0,1524.0,1525.0,1523.0,1521.0,1522.0,1521.0,1522.0,1518.0,1520.0,1517.0,1516.0,1515.0,1510.0,1511.0,1511.0,1511.0,1507.0,1511.0,1509.0,1507.0,1508.0,1500.0,1503.0,1503.0,1503.0,1500.0,1504.0,1506.0,1505.0,1506.0,1505.0,1508.0,1511.0,1508.0,1512.0,1512.0,1511.0,1515.0,1512.0,1515.0,1518.0,1517.0,1517.0,1522.0,1523.0,1522.0,1527.0,1524.0,1528.0,1530.0,1531.0,1534.0,1536.0,1542.0,1541.0,1536.0,1541.0,1543.0,1541.0,1541.0,1540.0,1540.0,1539.0,1536.0,1537.0,1534.0,1534.0,1531.0,1528.0,1530.0,1526.0,1525.0,1524.0,1523.0,1520.0,1519.0,1520.0,1518.0,1518.0,1515.0,1511.0,1511.0,1511.0,1507.0,1503.0,1501.0,1502.0,1502.0,1500.0,1499.0,1497.0,1496.0,1496.0,1500.0,1499.0,1497.0,1494.0,1497.0,1495.0,1489.0,1492.0,1488.0,1487.0,1483.0,1482.0,1480.0,1482.0,1476.0,1476.0,1474.0,1473.0,1471.0,1475.0,1470.0,1467.0,1468.0,1466.0,1467.0,1468.0,1469.0,1470.0,1472.0,1467.0,1470.0,1471.0,1472.0,1474.0,1475.0,1476.0,1481.0,1484.0,1485.0,1484.0,1485.0,1486.0,1489.0,1493.0,1489.0,1490.0,1487.0,1488.0,1488.0,1489.0,1497.0,1495.0,1491.0,1488.0,1489.0,1483.0,1480.0,1481.0,1478.0,1480.0,1478.0,1476.0,1471.0,1472.0,1471.0,1470.0,1467.0,1468.0,1466.0,1466.0,1466.0,1464.0,1468.0,1463.0,1461.0,1459.0,1458.0,1460.0,1463.0,1460.0,1456.0,1458.0,1455.0,1457.0,1456.0,1455.0,1455.0,1454.0,1456.0,1456.0,1458.0,1456.0,1456.0,1462.0,1460.0,1460.0,1462.0,1465.0,1464.0,1466.0,1469.0,1470.0,1473.0,1474.0,1477.0,1481.0,1481.0,1483.0,1484.0,1486.0,1489.0,1489.0,1492.0,1493.0,1499.0,1498.0,1499.0,1506.0,1505.0,1509.0,1513.0,1514.0,1520.0,1522.0,1524.0,1527.0,1529.0,1529.0,1534.0,1535.0,1534.0,1535.0,1535.0,1535.0,1536.0,1532.0,1533.0,1536.0,1536.0,1532.0,1537.0,1536.0,1536.0,1540.0,1541.0,1540.0,1544.0,1546.0,1548.0,1548.0,1553.0,1554.0,1557.0,1560.0,1563.0,1566.0,1569.0,1572.0,1576.0","1","odd","NA","NA","NA","arithmetic","49423","112062","NA","46635","117063","NA","46212","NA","NA","1576","110558","NA","112063","NA","1659","NA","NA","NA","117368","NA","108632","NA","117064","NA","110204","NA","107757","NA","46636","3126","NA","NA","NA","NA","46212","108632","NA","Extended template","0","0","0","yes","1024"
"undefined","undefined","undefined","undefined","black","yes","xpyriment","legacy","legacy","0","uniform","undefined","undefined","0","7","NA","0","7","NA","0","0","0","0","7","NA","7","NA","0","0","NA","NA","7","NA","7","NA","7","NA","7","NA","7","NA","0","0","0","0","NA","NA","0","7","NA","10/18/18 13:39:13","A template containing a practice and an experimental phase","medium","yes","Experiment.osexp","C:\Users\EEGExp\Desktop","no","mono","no","18","no","white","no","Ok","yes","768","legacy","7","7","0","C:/Users/EEGExp/Desktop/subject-1.csv","xpyriment","Kafkaesque Koffka","3.2.5","yes","[ 1664.  1670.  1672.  1666.  1669.  1670.  1673.  1671.  1670.  1677.
  1673.  1679.  1678.  1679.  1680.  1682.  1684.  1687.  1687.  1687.
  1684.  1692.  1686.  1689.  1694.  1692.  1695.  1700.  1698.  1695.
  1698.  1693.  1696.  1696.  1695.  1694.  1695.  1694.  1692.  1695.
  1695.  1693.  1691.  1690.  1693.  1690.  1690.  1687.  1687.  1688.
  1684.  1682.  1683.  1684.  1682.  1679.  1672.  1670.  1667.  1664.
  1659.  1658.  1654.  1645.  1642.  1638.  1637.  1633.  1628.  1629.
  1622.  1619.  1617.  1615.  1615.  1612.  1609.  1608.  1607.  1609.
  1607.  1609.  1606.  1605.  1606.  1608.  1608.  1612.  1607.  1610.
  1613.  1614.  1618.  1616.  1619.  1621.  1618.  1622.  1623.  1623.
  1623.  1624.  1625.  1624.  1618.  1620.  1618.  1620.  1617.  1619.
  1623.  1622.  1620.  1618.  1619.  1620.  1618.  1618.  1619.  1620.
  1621.  1623.  1627.  1625.  1628.  1629.  1629.  1628.  1631.  1630.
  1628.  1627.  1627.  1632.  1631.  1630.  1629.  1628.  1629.  1628.
  1631.  1632.  1631.  1632.  1632.  1632.  1631.  1635.  1636.  1637.
  1632.  1633.  1633.  1633.  1634.  1634.  1637.  1636.  1633.  1633.
  1633.  1632.  1634.  1632.  1633.  1630.  1632.  1628.  1628.  1629.
  1627.  1624.  1623.  1623.  1627.  1624.  1620.  1622.  1620.  1619.
  1617.  1617.  1616.  1612.  1612.  1615.  1609.  1608.  1610.  1614.
  1609.  1608.  1605.  1598.  1603.  1595.  1596.  1595.  1595.  1593.
  1592.  1589.  1588.  1586.  1585.  1586.  1581.  1578.  1578.  1578.
  1574.  1571.  1570.  1567.  1570.  1565.  1561.  1566.  1559.  1562.
  1560.  1556.  1559.  1555.  1552.  1552.  1550.  1548.  1551.  1553.
  1555.  1555.  1556.  1551.  1552.  1555.  1556.  1555.  1555.  1559.
  1562.  1565.  1566.  1567.  1566.  1567.  1570.  1567.  1570.  1573.
  1574.  1579.  1576.  1576.  1578.  1582.  1581.  1589.  1590.  1590.
  1589.  1589.  1589.  1587.  1584.  1586.  1588.  1585.  1579.  1585.
  1584.  1579.  1577.  1576.  1572.  1578.  1575.  1575.  1573.  1574.
  1571.  1572.  1572.  1570.  1573.  1573.  1575.  1577.  1575.  1576.
  1578.  1578.  1579.  1583.  1586.  1585.  1580.  1581.  1577.  1580.
  1577.  1571.  1568.  1567.  1565.  1567.  1565.  1563.  1563.  1558.
  1553.  1552.  1551.  1550.  1543.  1540.  1541.  1533.  1530.  1530.
  1526.  1526.  1523.  1519.  1512.  1514.  1509.  1505.  1506.  1498.
  1500.  1498.  1497.  1496.  1498.  1496.  1496.  1498.  1497.  1500.
  1499.  1493.  1501.  1495.  1498.  1493.  1493.  1492.  1491.  1488.
  1483.  1480.  1477.  1475.  1470.  1468.  1460.  1459.  1457.  1454.
  1453.  1450.  1445.  1442.  1441.  1437.  1431.  1434.  1429.  1428.
  1426.  1420.  1422.  1418.  1416.  1409.  1407.  1404.  1402.  1401.
  1396.  1397.  1396.  1393.  1392.  1388.  1386.  1384.  1379.  1379.
  1377.  1378.  1378.  1373.  1372.  1369.  1367.  1367.  1365.  1364.
  1360.  1360.  1359.  1360.  1358.  1357.  1355.  1355.  1356.  1353.
  1354.  1352.  1353.  1353.  1351.  1352.  1354.  1353.  1353.  1351.
  1352.  1352.  1348.  1350.  1350.  1348.  1348.  1345.  1342.  1345.
  1345.  1346.  1346.  1346.  1345.  1343.  1345.  1346.  1346.  1346.
  1347.  1350.  1347.  1348.  1351.  1351.  1351.  1351.  1353.  1355.
  1354.  1354.  1357.  1355.  1357.  1355.  1357.  1358.  1355.  1358.
  1359.  1358.  1363.  1364.  1367.  1366.  1366.  1370.  1371.  1369.
  1372.  1370.  1371.  1374.  1368.  1372.  1371.  1374.  1373.  1372.
  1371.  1371.  1370.  1371.  1374.  1377.  1379.  1379.  1379.  1382.
  1384.  1377.  1382.  1380.  1383.  1386.  1379.  1381.  1380.  1379.]","3x = 15","0","space","NA","NA","space","1466","NA","NA","1466","LinregressResult(slope=-0.74261322645290584, intercept=1722.8226132264529, rvalue=-0.94241395065851752, pvalue=4.9529696063400225e-239, stderr=0.011809617704385968)","2","legacy","-0.742613226453","1024","2","48000","-16","experiment","1664.0,1670.0,1672.0,1666.0,1669.0,1670.0,1673.0,1671.0,1670.0,1677.0,1673.0,1679.0,1678.0,1679.0,1680.0,1682.0,1684.0,1687.0,1687.0,1687.0,1684.0,1692.0,1686.0,1689.0,1694.0,1692.0,1695.0,1700.0,1698.0,1695.0,1698.0,1693.0,1696.0,1696.0,1695.0,1694.0,1695.0,1694.0,1692.0,1695.0,1695.0,1693.0,1691.0,1690.0,1693.0,1690.0,1690.0,1687.0,1687.0,1688.0,1684.0,1682.0,1683.0,1684.0,1682.0,1679.0,1672.0,1670.0,1667.0,1664.0,1659.0,1658.0,1654.0,1645.0,1642.0,1638.0,1637.0,1633.0,1628.0,1629.0,1622.0,1619.0,1617.0,1615.0,1615.0,1612.0,1609.0,1608.0,1607.0,1609.0,1607.0,1609.0,1606.0,1605.0,1606.0,1608.0,1608.0,1612.0,1607.0,1610.0,1613.0,1614.0,1618.0,1616.0,1619.0,1621.0,1618.0,1622.0,1623.0,1623.0,1623.0,1624.0,1625.0,1624.0,1618.0,1620.0,1618.0,1620.0,1617.0,1619.0,1623.0,1622.0,1620.0,1618.0,1619.0,1620.0,1618.0,1618.0,1619.0,1620.0,1621.0,1623.0,1627.0,1625.0,1628.0,1629.0,1629.0,1628.0,1631.0,1630.0,1628.0,1627.0,1627.0,1632.0,1631.0,1630.0,1629.0,1628.0,1629.0,1628.0,1631.0,1632.0,1631.0,1632.0,1632.0,1632.0,1631.0,1635.0,1636.0,1637.0,1632.0,1633.0,1633.0,1633.0,1634.0,1634.0,1637.0,1636.0,1633.0,1633.0,1633.0,1632.0,1634.0,1632.0,1633.0,1630.0,1632.0,1628.0,1628.0,1629.0,1627.0,1624.0,1623.0,1623.0,1627.0,1624.0,1620.0,1622.0,1620.0,1619.0,1617.0,1617.0,1616.0,1612.0,1612.0,1615.0,1609.0,1608.0,1610.0,1614.0,1609.0,1608.0,1605.0,1598.0,1603.0,1595.0,1596.0,1595.0,1595.0,1593.0,1592.0,1589.0,1588.0,1586.0,1585.0,1586.0,1581.0,1578.0,1578.0,1578.0,1574.0,1571.0,1570.0,1567.0,1570.0,1565.0,1561.0,1566.0,1559.0,1562.0,1560.0,1556.0,1559.0,1555.0,1552.0,1552.0,1550.0,1548.0,1551.0,1553.0,1555.0,1555.0,1556.0,1551.0,1552.0,1555.0,1556.0,1555.0,1555.0,1559.0,1562.0,1565.0,1566.0,1567.0,1566.0,1567.0,1570.0,1567.0,1570.0,1573.0,1574.0,1579.0,1576.0,1576.0,1578.0,1582.0,1581.0,1589.0,1590.0,1590.0,1589.0,1589.0,1589.0,1587.0,1584.0,1586.0,1588.0,1585.0,1579.0,1585.0,1584.0,1579.0,1577.0,1576.0,1572.0,1578.0,1575.0,1575.0,1573.0,1574.0,1571.0,1572.0,1572.0,1570.0,1573.0,1573.0,1575.0,1577.0,1575.0,1576.0,1578.0,1578.0,1579.0,1583.0,1586.0,1585.0,1580.0,1581.0,1577.0,1580.0,1577.0,1571.0,1568.0,1567.0,1565.0,1567.0,1565.0,1563.0,1563.0,1558.0,1553.0,1552.0,1551.0,1550.0,1543.0,1540.0,1541.0,1533.0,1530.0,1530.0,1526.0,1526.0,1523.0,1519.0,1512.0,1514.0,1509.0,1505.0,1506.0,1498.0,1500.0,1498.0,1497.0,1496.0,1498.0,1496.0,1496.0,1498.0,1497.0,1500.0,1499.0,1493.0,1501.0,1495.0,1498.0,1493.0,1493.0,1492.0,1491.0,1488.0,1483.0,1480.0,1477.0,1475.0,1470.0,1468.0,1460.0,1459.0,1457.0,1454.0,1453.0,1450.0,1445.0,1442.0,1441.0,1437.0,1431.0,1434.0,1429.0,1428.0,1426.0,1420.0,1422.0,1418.0,1416.0,1409.0,1407.0,1404.0,1402.0,1401.0,1396.0,1397.0,1396.0,1393.0,1392.0,1388.0,1386.0,1384.0,1379.0,1379.0,1377.0,1378.0,1378.0,1373.0,1372.0,1369.0,1367.0,1367.0,1365.0,1364.0,1360.0,1360.0,1359.0,1360.0,1358.0,1357.0,1355.0,1355.0,1356.0,1353.0,1354.0,1352.0,1353.0,1353.0,1351.0,1352.0,1354.0,1353.0,1353.0,1351.0,1352.0,1352.0,1348.0,1350.0,1350.0,1348.0,1348.0,1345.0,1342.0,1345.0,1345.0,1346.0,1346.0,1346.0,1345.0,1343.0,1345.0,1346.0,1346.0,1346.0,1347.0,1350.0,1347.0,1348.0,1351.0,1351.0,1351.0,1351.0,1353.0,1355.0,1354.0,1354.0,1357.0,1355.0,1357.0,1355.0,1357.0,1358.0,1355.0,1358.0,1359.0,1358.0,1363.0,1364.0,1367.0,1366.0,1366.0,1370.0,1371.0,1369.0,1372.0,1370.0,1371.0,1374.0,1368.0,1372.0,1371.0,1374.0,1373.0,1372.0,1371.0,1371.0,1370.0,1371.0,1374.0,1377.0,1379.0,1379.0,1379.0,1382.0,1384.0,1377.0,1382.0,1380.0,1383.0,1386.0,1379.0,1381.0,1380.0,1379.0","1","odd","NA","NA","NA","arithmetic","49423","121092","NA","46635","126093","NA","46212","NA","NA","1576","119587","NA","121093","NA","1659","NA","NA","NA","126398","NA","118262","NA","126094","NA","119234","NA","117384","NA","46636","3126","NA","NA","NA","NA","46212","118262","NA","Extended template","0","0","0","yes","1024"
"undefined","undefined","undefined","undefined","black","yes","xpyriment","legacy","legacy","0","uniform","undefined","undefined","0","8","NA","0","8","NA","0","0","0","0","8","NA","8","NA","0","0","NA","NA","8","NA","8","NA","8","NA","8","NA","8","NA","0","0","0","0","NA","NA","0","8","NA","10/18/18 13:39:13","A template containing a practice and an experimental phase","medium","yes","Experiment.osexp","C:\Users\EEGExp\Desktop","no","mono","no","18","no","white","no","Ok","yes","768","legacy","8","8","0","C:/Users/EEGExp/Desktop/subject-1.csv","xpyriment","Kafkaesque Koffka","3.2.5","yes","[ 1449.  1451.  1453.  1457.  1457.  1455.  1456.  1456.  1461.  1461.
  1461.  1464.  1461.  1463.  1465.  1470.  1465.  1468.  1470.  1469.
  1472.  1474.  1473.  1474.  1474.  1473.  1478.  1479.  1482.  1483.
  1485.  1489.  1491.  1489.  1498.  1497.  1498.  1503.  1504.  1507.
  1505.  1506.  1513.  1513.  1516.  1515.  1515.  1515.  1514.  1515.
  1515.  1514.  1515.  1515.  1516.  1510.  1506.  1508.  1509.  1500.
  1500.  1498.  1498.  1494.  1490.  1486.  1483.  1482.  1483.  1477.
  1477.  1474.  1472.  1474.  1472.  1470.  1472.  1470.  1470.  1470.
  1467.  1467.  1463.  1464.  1458.  1454.  1449.  1446.  1441.  1442.
  1441.  1437.  1434.  1426.  1430.  1425.  1422.  1418.  1417.  1415.
  1415.  1416.  1430.  1407.  1074.   639.   480.   677.  1134.  1230.
  1390.  1390.  1370.  1371.  1369.  1368.  1370.  1370.  1372.  1372.
  1371.  1377.  1376.  1378.  1379.  1377.  1379.  1383.  1386.  1382.
  1382.  1380.  1381.  1381.  1380.  1377.  1374.  1370.  1370.  1367.
  1363.  1360.  1351.  1349.  1344.  1338.  1338.  1331.  1330.  1327.
  1326.  1322.  1316.  1315.  1312.  1310.  1305.  1303.  1294.  1287.
  1285.  1278.  1277.  1266.  1261.  1256.  1249.  1242.  1237.  1229.
  1226.  1218.  1217.  1213.  1203.  1203.  1200.  1197.  1196.  1193.
  1193.  1197.  1194.  1193.  1195.  1193.  1191.  1189.  1192.  1191.
  1192.  1196.  1193.  1194.  1196.  1195.  1193.  1195.  1201.  1203.
  1202.  1204.  1208.  1208.  1210.  1211.  1211.  1213.  1214.  1213.
  1213.  1216.  1217.  1215.  1217.  1218.  1213.  1217.  1218.  1219.
  1219.  1220.  1220.  1223.  1219.  1221.  1226.  1224.  1225.  1223.
  1224.  1226.  1228.  1228.  1232.  1228.  1228.  1231.  1236.  1231.
  1233.  1232.  1231.  1231.  1233.  1233.  1234.  1236.  1240.  1237.
  1235.  1236.  1236.  1236.  1242.  1241.  1245.  1243.  1246.  1247.
  1250.  1250.  1253.  1258.  1259.  1264.  1263.  1264.  1263.  1266.
  1269.  1272.  1272.  1274.  1278.  1277.  1282.  1284.  1291.  1291.
  1295.  1296.  1297.  1299.  1304.  1306.  1309.  1309.  1313.  1317.
  1317.  1322.  1322.  1328.  1329.  1333.  1333.  1334.  1335.  1342.
  1346.  1347.  1351.  1356.  1356.  1356.  1359.  1363.  1363.  1365.
  1366.  1369.  1368.  1370.  1367.  1364.  1366.  1364.  1363.  1362.
  1360.  1359.  1361.  1358.  1358.  1358.  1353.  1354.  1356.  1350.
  1351.  1353.  1352.  1352.  1354.  1354.  1356.  1350.  1354.  1352.
  1353.  1356.  1361.  1359.  1359.  1360.  1361.  1359.  1361.  1363.
  1361.  1359.  1362.  1362.  1363.  1361.  1363.  1364.  1364.  1362.
  1368.  1364.  1370.  1370.  1368.  1368.  1369.  1369.  1370.  1369.
  1375.  1373.  1376.  1373.  1377.  1375.  1376.  1378.  1375.  1371.
  1373.  1372.  1374.  1375.  1374.  1372.  1369.  1368.  1370.  1366.
  1370.  1367.  1365.  1364.  1360.  1360.  1358.  1354.  1350.  1349.
  1349.  1350.  1347.  1346.  1345.  1341.  1341.  1341.  1340.  1341.
  1336.  1341.  1338.  1336.  1339.  1340.  1340.  1340.  1336.  1338.
  1342.  1341.  1346.  1342.  1346.  1348.  1347.  1347.  1352.  1349.
  1352.  1353.  1354.  1354.  1358.  1360.  1364.  1367.  1369.  1373.
  1374.  1378.  1379.  1385.  1384.  1389.  1393.  1395.  1398.  1408.
  1409.  1408.  1414.  1415.  1416.  1423.  1429.  1428.  1434.  1438.
  1438.  1441.  1442.  1448.  1451.  1453.  1455.  1462.  1466.  1469.
  1474.  1476.  1483.  1486.  1489.  1489.  1492.  1496.  1494.  1498.
  1500.  1507.  1509.  1513.  1517.  1520.  1523.  1526.  1531.  1532.
  1536.]","4x = 16","0","space","NA","NA","space","1466","NA","NA","1466","LinregressResult(slope=-0.042887961403825378, intercept=1363.8213142690884, rvalue=-0.054310441765562191, pvalue=0.22965098625369129, stderr=0.035657935019294436)","2","legacy","-0.0428879614038","1024","2","48000","-16","experiment","1449.0,1451.0,1453.0,1457.0,1457.0,1455.0,1456.0,1456.0,1461.0,1461.0,1461.0,1464.0,1461.0,1463.0,1465.0,1470.0,1465.0,1468.0,1470.0,1469.0,1472.0,1474.0,1473.0,1474.0,1474.0,1473.0,1478.0,1479.0,1482.0,1483.0,1485.0,1489.0,1491.0,1489.0,1498.0,1497.0,1498.0,1503.0,1504.0,1507.0,1505.0,1506.0,1513.0,1513.0,1516.0,1515.0,1515.0,1515.0,1514.0,1515.0,1515.0,1514.0,1515.0,1515.0,1516.0,1510.0,1506.0,1508.0,1509.0,1500.0,1500.0,1498.0,1498.0,1494.0,1490.0,1486.0,1483.0,1482.0,1483.0,1477.0,1477.0,1474.0,1472.0,1474.0,1472.0,1470.0,1472.0,1470.0,1470.0,1470.0,1467.0,1467.0,1463.0,1464.0,1458.0,1454.0,1449.0,1446.0,1441.0,1442.0,1441.0,1437.0,1434.0,1426.0,1430.0,1425.0,1422.0,1418.0,1417.0,1415.0,1415.0,1416.0,1430.0,1407.0,1074.0,639.0,0.0,0.0,0.0,0.0,0.0,0.0,0.0,0.0,0.0,480.0,677.0,1134.0,1230.0,1390.0,1390.0,1370.0,1371.0,1369.0,1368.0,1370.0,1370.0,1372.0,1372.0,1371.0,1377.0,1376.0,1378.0,1379.0,1377.0,1379.0,1383.0,1386.0,1382.0,1382.0,1380.0,1381.0,1381.0,1380.0,1377.0,1374.0,1370.0,1370.0,1367.0,1363.0,1360.0,1351.0,1349.0,1344.0,1338.0,1338.0,1331.0,1330.0,1327.0,1326.0,1322.0,1316.0,1315.0,1312.0,1310.0,1305.0,1303.0,1294.0,1287.0,1285.0,1278.0,1277.0,1266.0,1261.0,1256.0,1249.0,1242.0,1237.0,1229.0,1226.0,1218.0,1217.0,1213.0,1203.0,1203.0,1200.0,1197.0,1196.0,1193.0,1193.0,1197.0,1194.0,1193.0,1195.0,1193.0,1191.0,1189.0,1192.0,1191.0,1192.0,1196.0,1193.0,1194.0,1196.0,1195.0,1193.0,1195.0,1201.0,1203.0,1202.0,1204.0,1208.0,1208.0,1210.0,1211.0,1211.0,1213.0,1214.0,1213.0,1213.0,1216.0,1217.0,1215.0,1217.0,1218.0,1213.0,1217.0,1218.0,1219.0,1219.0,1220.0,1220.0,1223.0,1219.0,1221.0,1226.0,1224.0,1225.0,1223.0,1224.0,1226.0,1228.0,1228.0,1232.0,1228.0,1228.0,1231.0,1236.0,1231.0,1233.0,1232.0,1231.0,1231.0,1233.0,1233.0,1234.0,1236.0,1240.0,1237.0,1235.0,1236.0,1236.0,1236.0,1242.0,1241.0,1245.0,1243.0,1246.0,1247.0,1250.0,1250.0,1253.0,1258.0,1259.0,1264.0,1263.0,1264.0,1263.0,1266.0,1269.0,1272.0,1272.0,1274.0,1278.0,1277.0,1282.0,1284.0,1291.0,1291.0,1295.0,1296.0,1297.0,1299.0,1304.0,1306.0,1309.0,1309.0,1313.0,1317.0,1317.0,1322.0,1322.0,1328.0,1329.0,1333.0,1333.0,1334.0,1335.0,1342.0,1346.0,1347.0,1351.0,1356.0,1356.0,1356.0,1359.0,1363.0,1363.0,1365.0,1366.0,1369.0,1368.0,1370.0,1367.0,1364.0,1366.0,1364.0,1363.0,1362.0,1360.0,1359.0,1361.0,1358.0,1358.0,1358.0,1353.0,1354.0,1356.0,1350.0,1351.0,1353.0,1352.0,1352.0,1354.0,1354.0,1356.0,1350.0,1354.0,1352.0,1353.0,1356.0,1361.0,1359.0,1359.0,1360.0,1361.0,1359.0,1361.0,1363.0,1361.0,1359.0,1362.0,1362.0,1363.0,1361.0,1363.0,1364.0,1364.0,1362.0,1368.0,1364.0,1370.0,1370.0,1368.0,1368.0,1369.0,1369.0,1370.0,1369.0,1375.0,1373.0,1376.0,1373.0,1377.0,1375.0,1376.0,1378.0,1375.0,1371.0,1373.0,1372.0,1374.0,1375.0,1374.0,1372.0,1369.0,1368.0,1370.0,1366.0,1370.0,1367.0,1365.0,1364.0,1360.0,1360.0,1358.0,1354.0,1350.0,1349.0,1349.0,1350.0,1347.0,1346.0,1345.0,1341.0,1341.0,1341.0,1340.0,1341.0,1336.0,1341.0,1338.0,1336.0,1339.0,1340.0,1340.0,1340.0,1336.0,1338.0,1342.0,1341.0,1346.0,1342.0,1346.0,1348.0,1347.0,1347.0,1352.0,1349.0,1352.0,1353.0,1354.0,1354.0,1358.0,1360.0,1364.0,1367.0,1369.0,1373.0,1374.0,1378.0,1379.0,1385.0,1384.0,1389.0,1393.0,1395.0,1398.0,1408.0,1409.0,1408.0,1414.0,1415.0,1416.0,1423.0,1429.0,1428.0,1434.0,1438.0,1438.0,1441.0,1442.0,1448.0,1451.0,1453.0,1455.0,1462.0,1466.0,1469.0,1474.0,1476.0,1483.0,1486.0,1489.0,1489.0,1492.0,1496.0,1494.0,1498.0,1500.0,1507.0,1509.0,1513.0,1517.0,1520.0,1523.0,1526.0,1531.0,1532.0,1536.0","1","odd","NA","NA","NA","arithmetic","49423","131380","NA","46635","136381","NA","46212","NA","NA","1576","129875","NA","131381","NA","1659","NA","NA","NA","136685","NA","127290","NA","136382","NA","129522","NA","126415","NA","46636","3126","NA","NA","NA","NA","46212","127290","NA","Extended template","0","0","0","yes","1024"
"undefined","undefined","undefined","undefined","black","yes","xpyriment","legacy","legacy","0","uniform","undefined","undefined","0","9","NA","0","9","NA","0","0","0","0","9","NA","9","NA","0","0","NA","NA","9","NA","9","NA","9","NA","9","NA","9","NA","0","0","0","0","NA","NA","0","9","NA","10/18/18 13:39:13","A template containing a practice and an experimental phase","easy","yes","Experiment.osexp","C:\Users\EEGExp\Desktop","no","mono","no","18","no","white","no","Ok","yes","768","legacy","9","9","0","C:/Users/EEGExp/Desktop/subject-1.csv","xpyriment","Kafkaesque Koffka","3.2.5","yes","[ 1659.  1658.  1663.  1665.  1665.  1666.  1668.  1667.  1669.  1671.
  1671.  1675.  1672.  1673.  1672.  1671.  1669.  1671.  1670.  1668.
  1668.  1665.  1658.  1656.  1653.  1652.  1650.  1648.  1643.  1642.
  1639.  1638.  1634.  1632.  1628.  1630.  1630.  1631.  1630.  1630.
  1630.  1630.  1629.  1630.  1631.  1634.  1634.  1635.  1638.  1639.
  1636.  1639.  1636.  1638.  1638.  1634.  1632.  1632.  1629.  1628.
  1626.  1626.  1626.  1623.  1619.  1615.  1612.  1612.  1612.  1604.
  1603.  1603.  1602.  1597.  1597.  1599.  1602.  1600.  1602.  1601.
  1602.  1600.  1604.  1605.  1607.  1608.  1605.  1608.  1609.  1613.
  1618.  1616.  1620.  1621.  1617.  1617.  1614.  1610.  1611.  1606.
  1605.  1603.  1599.  1594.  1591.  1585.  1581.  1578.  1573.  1573.
  1572.  1567.  1566.  1560.  1561.  1557.  1553.  1553.  1552.  1552.
  1555.  1551.  1549.  1548.  1544.  1548.  1547.  1545.  1548.  1543.
  1545.  1544.  1542.  1545.  1549.  1549.  1546.  1551.  1550.  1550.
  1551.  1552.  1552.  1556.  1555.  1560.  1561.  1567.  1568.  1570.
  1573.  1573.  1576.  1578.  1579.  1584.  1589.  1588.  1589.  1589.
  1593.  1597.  1596.  1593.  1596.  1594.  1596.  1597.  1595.  1595.
  1597.  1596.  1595.  1592.  1596.  1593.  1595.  1592.  1599.  1601.
  1599.  1601.  1600.  1601.  1601.  1602.  1606.  1605.  1605.  1605.
  1605.  1605.  1601.  1596.  1595.  1599.  1596.  1590.  1589.  1592.
  1588.  1587.  1579.  1579.  1578.  1574.  1570.  1569.  1567.  1561.
  1560.  1553.  1551.  1546.  1543.  1536.  1530.  1529.  1521.  1518.
  1517.  1513.  1506.  1504.  1502.  1504.  1501.  1498.  1494.  1490.
  1489.  1486.  1484.  1485.  1484.  1482.  1480.  1479.  1478.  1478.
  1476.  1477.  1477.  1478.  1478.  1473.  1473.  1469.  1469.  1473.
  1470.  1468.  1463.  1458.  1455.  1457.  1456.  1454.  1455.  1457.
  1458.  1455.  1456.  1456.  1458.  1460.  1458.  1459.  1461.  1459.
  1459.  1461.  1460.  1455.  1457.  1459.  1457.  1456.  1458.  1459.
  1456.  1458.  1456.  1461.  1461.  1461.  1465.  1463.  1465.  1464.
  1464.  1465.  1467.  1464.  1465.  1464.  1466.  1465.  1462.  1463.
  1465.  1468.  1470.  1468.  1471.  1472.  1476.  1480.  1485.  1487.
  1488.  1488.  1489.  1495.  1498.  1503.  1507.  1511.  1512.  1516.
  1521.  1523.  1526.  1532.  1535.  1538.  1541.  1546.  1548.  1551.
  1560.  1562.  1562.  1561.  1562.  1566.  1566.  1569.  1575.  1574.
  1573.  1579.  1580.  1581.  1581.  1585.  1587.  1589.  1592.  1596.
  1596.  1598.  1594.  1601.  1602.  1601.  1601.  1608.  1604.  1610.
  1612.  1609.  1615.  1617.  1617.  1620.  1625.  1622.  1622.  1627.
  1626.  1630.  1630.  1634.  1635.  1631.  1632.  1630.  1631.  1630.
  1631.  1627.  1627.  1631.  1630.  1631.  1629.  1631.  1632.  1629.
  1630.  1629.  1635.  1635.  1631.  1634.  1631.  1631.  1632.  1633.
  1631.  1630.  1629.  1628.  1628.  1628.  1626.  1628.  1625.  1623.
  1626.  1626.  1626.  1626.  1628.  1624.  1626.  1629.  1627.  1626.
  1626.  1627.  1625.  1627.  1626.  1625.  1625.  1625.  1625.  1624.
  1625.  1621.  1621.  1623.  1621.  1621.  1621.  1619.  1621.  1620.
  1617.  1617.  1621.  1619.  1617.  1617.  1621.  1619.  1620.  1623.
  1626.  1627.  1627.  1631.  1632.  1633.  1634.  1639.  1640.  1639.
  1639.  1640.  1640.  1641.  1641.  1641.  1647.  1644.  1640.  1642.
  1643.  1643.  1643.  1643.  1642.  1642.  1644.  1640.  1639.  1638.
  1638.  1635.  1635.  1632.  1634.  1632.  1630.  1627.  1624.  1624.
  1622.  1619.  1614.  1611.  1611.  1603.  1604.  1604.  1597.  1595.]","2 + 4","0","space","NA","NA","space","1466","NA","NA","1466","LinregressResult(slope=-0.0068866355465421946, intercept=1582.2311022044089, rvalue=-0.016043055269952016, pvalue=0.7204489949446331, stderr=0.019233107206257295)","2","legacy","-0.00688663554654","1024","2","48000","-16","experiment","1659.0,1658.0,1663.0,1665.0,1665.0,1666.0,1668.0,1667.0,1669.0,1671.0,1671.0,1675.0,1672.0,1673.0,1672.0,1671.0,1669.0,1671.0,1670.0,1668.0,1668.0,1665.0,1658.0,1656.0,1653.0,1652.0,1650.0,1648.0,1643.0,1642.0,1639.0,1638.0,1634.0,1632.0,1628.0,1630.0,1630.0,1631.0,1630.0,1630.0,1630.0,1630.0,1629.0,1630.0,1631.0,1634.0,1634.0,1635.0,1638.0,1639.0,1636.0,1639.0,1636.0,1638.0,1638.0,1634.0,1632.0,1632.0,1629.0,1628.0,1626.0,1626.0,1626.0,1623.0,1619.0,1615.0,1612.0,1612.0,1612.0,1604.0,1603.0,1603.0,1602.0,1597.0,1597.0,1599.0,1602.0,1600.0,1602.0,1601.0,1602.0,1600.0,1604.0,1605.0,1607.0,1608.0,1605.0,1608.0,1609.0,1613.0,1618.0,1616.0,1620.0,1621.0,1617.0,1617.0,1614.0,1610.0,1611.0,1606.0,1605.0,1603.0,1599.0,1594.0,1591.0,1585.0,1581.0,1578.0,1573.0,1573.0,1572.0,1567.0,1566.0,1560.0,1561.0,1557.0,1553.0,1553.0,1552.0,1552.0,1555.0,1551.0,1549.0,1548.0,1544.0,1548.0,1547.0,1545.0,1548.0,1543.0,1545.0,1544.0,1542.0,1545.0,1549.0,1549.0,1546.0,1551.0,1550.0,1550.0,1551.0,1552.0,1552.0,1556.0,1555.0,1560.0,1561.0,1567.0,1568.0,1570.0,1573.0,1573.0,1576.0,1578.0,1579.0,1584.0,1589.0,1588.0,1589.0,1589.0,1593.0,1597.0,1596.0,1593.0,1596.0,1594.0,1596.0,1597.0,1595.0,1595.0,1597.0,1596.0,1595.0,1592.0,1596.0,1593.0,1595.0,1592.0,1599.0,1601.0,1599.0,1601.0,1600.0,1601.0,1601.0,1602.0,1606.0,1605.0,1605.0,1605.0,1605.0,1605.0,1601.0,1596.0,1595.0,1599.0,1596.0,1590.0,1589.0,1592.0,1588.0,1587.0,1579.0,1579.0,1578.0,1574.0,1570.0,1569.0,1567.0,1561.0,1560.0,1553.0,1551.0,1546.0,1543.0,1536.0,1530.0,1529.0,1521.0,1518.0,1517.0,1513.0,1506.0,1504.0,1502.0,1504.0,1501.0,1498.0,1494.0,1490.0,1489.0,1486.0,1484.0,1485.0,1484.0,1482.0,1480.0,1479.0,1478.0,1478.0,1476.0,1477.0,1477.0,1478.0,1478.0,1473.0,1473.0,1469.0,1469.0,1473.0,1470.0,1468.0,1463.0,1458.0,1455.0,1457.0,1456.0,1454.0,1455.0,1457.0,1458.0,1455.0,1456.0,1456.0,1458.0,1460.0,1458.0,1459.0,1461.0,1459.0,1459.0,1461.0,1460.0,1455.0,1457.0,1459.0,1457.0,1456.0,1458.0,1459.0,1456.0,1458.0,1456.0,1461.0,1461.0,1461.0,1465.0,1463.0,1465.0,1464.0,1464.0,1465.0,1467.0,1464.0,1465.0,1464.0,1466.0,1465.0,1462.0,1463.0,1465.0,1468.0,1470.0,1468.0,1471.0,1472.0,1476.0,1480.0,1485.0,1487.0,1488.0,1488.0,1489.0,1495.0,1498.0,1503.0,1507.0,1511.0,1512.0,1516.0,1521.0,1523.0,1526.0,1532.0,1535.0,1538.0,1541.0,1546.0,1548.0,1551.0,1560.0,1562.0,1562.0,1561.0,1562.0,1566.0,1566.0,1569.0,1575.0,1574.0,1573.0,1579.0,1580.0,1581.0,1581.0,1585.0,1587.0,1589.0,1592.0,1596.0,1596.0,1598.0,1594.0,1601.0,1602.0,1601.0,1601.0,1608.0,1604.0,1610.0,1612.0,1609.0,1615.0,1617.0,1617.0,1620.0,1625.0,1622.0,1622.0,1627.0,1626.0,1630.0,1630.0,1634.0,1635.0,1631.0,1632.0,1630.0,1631.0,1630.0,1631.0,1627.0,1627.0,1631.0,1630.0,1631.0,1629.0,1631.0,1632.0,1629.0,1630.0,1629.0,1635.0,1635.0,1631.0,1634.0,1631.0,1631.0,1632.0,1633.0,1631.0,1630.0,1629.0,1628.0,1628.0,1628.0,1626.0,1628.0,1625.0,1623.0,1626.0,1626.0,1626.0,1626.0,1628.0,1624.0,1626.0,1629.0,1627.0,1626.0,1626.0,1627.0,1625.0,1627.0,1626.0,1625.0,1625.0,1625.0,1625.0,1624.0,1625.0,1621.0,1621.0,1623.0,1621.0,1621.0,1621.0,1619.0,1621.0,1620.0,1617.0,1617.0,1621.0,1619.0,1617.0,1617.0,1621.0,1619.0,1620.0,1623.0,1626.0,1627.0,1627.0,1631.0,1632.0,1633.0,1634.0,1639.0,1640.0,1639.0,1639.0,1640.0,1640.0,1641.0,1641.0,1641.0,1647.0,1644.0,1640.0,1642.0,1643.0,1643.0,1643.0,1643.0,1642.0,1642.0,1644.0,1640.0,1639.0,1638.0,1638.0,1635.0,1635.0,1632.0,1634.0,1632.0,1630.0,1627.0,1624.0,1624.0,1622.0,1619.0,1614.0,1611.0,1611.0,1603.0,1604.0,1604.0,1597.0,1595.0","1","odd","NA","NA","NA","arithmetic","49423","143136","NA","46635","148137","NA","46212","NA","NA","1576","141631","NA","143137","NA","1659","NA","NA","NA","148441","NA","137576","NA","148138","NA","141278","NA","136698","NA","46636","3126","NA","NA","NA","NA","46212","137576","NA","Extended template","0","0","0","yes","1024"
"undefined","undefined","undefined","undefined","black","yes","xpyriment","legacy","legacy","0","uniform","undefined","undefined","0","10","NA","0","10","NA","0","0","0","0","10","NA","10","NA","0","0","NA","NA","10","NA","10","NA","10","NA","10","NA","10","NA","0","0","0","0","NA","NA","0","10","NA","10/18/18 13:39:13","A template containing a practice and an experimental phase","medium","yes","Experiment.osexp","C:\Users\EEGExp\Desktop","no","mono","no","18","no","white","no","Ok","yes","768","legacy","10","10","0","C:/Users/EEGExp/Desktop/subject-1.csv","xpyriment","Kafkaesque Koffka","3.2.5","yes","[ 1519.  1520.  1520.  1520.  1520.  1526.  1526.  1530.  1535.  1534.
  1539.  1541.  1541.  1548.  1551.  1555.  1555.  1559.  1566.  1569.
  1573.  1577.  1582.  1584.  1589.  1592.  1593.  1600.  1606.  1609.
  1615.  1616.  1618.  1623.  1625.  1631.  1636.  1632.  1636.  1638.
  1641.  1642.  1648.  1648.  1647.  1648.  1651.  1651.  1653.  1654.
  1651.  1649.  1648.  1649.  1647.  1646.  1645.  1643.  1639.  1640.
  1638.  1638.  1636.  1633.  1629.  1627.  1627.  1625.  1625.  1622.
  1617.  1612.  1609.  1603.  1600.  1598.  1592.  1592.  1586.  1583.
  1582.  1576.  1574.  1570.  1567.  1564.  1561.  1563.  1561.  1558.
  1555.  1553.  1556.  1552.  1545.  1545.  1540.  1543.  1542.  1538.
  1537.  1533.  1535.  1532.  1531.  1530.  1531.  1529.  1528.  1527.
  1528.  1526.  1524.  1523.  1527.  1525.  1536.  1559.  1259.   629.
   542.   819.  1266.  1441.  1575.  1624.  1538.  1531.  1527.  1530.
  1529.  1529.  1530.  1531.  1533.  1537.  1539.  1541.  1542.  1543.
  1542.  1545.  1550.  1546.  1549.  1549.  1549.  1547.  1550.  1550.
  1549.  1550.  1544.  1546.  1543.  1537.  1531.  1524.  1518.  1518.
  1511.  1505.  1500.  1495.  1482.  1478.  1468.  1460.  1454.  1449.
  1440.  1438.  1432.  1426.  1421.  1415.  1410.  1412.  1404.  1402.
  1397.  1394.  1396.  1395.  1393.  1393.  1388.  1387.  1389.  1388.
  1386.  1388.  1391.  1388.  1388.  1390.  1389.  1389.  1393.  1391.
  1396.  1390.  1394.  1397.  1399.  1400.  1397.  1400.  1401.  1401.
  1404.  1405.  1404.  1409.  1410.  1411.  1411.  1418.  1415.  1415.
  1418.  1422.  1420.  1420.  1422.  1418.  1416.  1421.  1421.  1419.
  1423.  1422.  1420.  1420.  1420.  1421.  1420.  1420.  1423.  1424.
  1425.  1425.  1426.  1426.  1427.  1426.  1428.  1426.  1428.  1424.
  1425.  1424.  1423.  1426.  1425.  1426.  1425.  1427.  1428.  1427.
  1427.  1429.  1432.  1432.  1433.  1437.  1439.  1439.  1440.  1444.
  1444.  1443.  1445.  1451.  1454.  1456.  1458.  1463.  1463.  1468.
  1470.  1471.  1472.  1477.  1479.  1482.  1485.  1482.  1483.  1486.
  1486.  1488.  1491.  1492.  1493.  1491.  1491.  1494.  1493.  1494.
  1496.  1496.  1499.  1496.  1496.  1498.  1494.  1497.  1495.  1496.
  1494.  1493.  1488.  1487.  1486.  1481.  1480.  1479.  1479.  1475.
  1466.  1465.  1461.  1460.  1456.  1453.  1447.  1442.  1436.  1431.
  1428.  1425.  1418.  1412.  1402.  1394.  1394.  1387.  1385.  1379.
  1375.  1371.  1365.  1364.  1364.  1354.  1352.  1347.  1344.  1340.
  1336.  1335.  1335.  1328.  1325.  1320.  1320.  1315.  1311.  1306.
  1304.  1301.  1297.  1299.  1295.  1292.  1292.  1287.  1286.  1289.
  1289.  1286.  1281.  1283.  1278.  1279.  1279.  1277.  1273.  1275.
  1271.  1269.  1271.  1272.  1271.  1268.  1265.  1271.  1271.  1272.
  1270.  1273.  1272.  1275.  1273.  1276.  1276.  1277.  1280.  1282.
  1285.  1287.  1289.  1290.  1294.  1296.  1299.  1299.  1302.  1307.
  1312.  1316.  1315.  1322.  1326.  1328.  1328.  1328.  1333.  1335.
  1339.  1340.  1340.  1344.  1344.  1345.  1345.  1351.  1352.  1357.
  1356.  1360.  1359.  1359.  1363.  1363.  1362.  1364.  1363.  1365.
  1364.  1366.  1365.  1367.  1377.  1392.   971.   344.   636.  1191.
  1411.  1473.  1424.  1419.  1423.  1422.  1425.  1430.  1439.  1440.
  1443.  1445.  1449.  1455.  1455.  1454.  1460.  1461.  1464.  1465.
  1466.  1468.  1470.  1469.  1472.  1469.  1465.  1465.  1460.  1459.
  1452.  1447.  1442.  1441.  1427.]","2x = 6","0","space","NA","NA","space","1466","NA","NA","1466","LinregressResult(slope=-0.57296394119261973, intercept=1583.537454204652, rvalue=-0.58547524805108286, pvalue=5.854395226620148e-46, stderr=0.036099414125587106)","2","legacy","-0.572963941193","1024","2","48000","-16","experiment","1519.0,1520.0,1520.0,1520.0,1520.0,1526.0,1526.0,1530.0,1535.0,1534.0,1539.0,1541.0,1541.0,1548.0,1551.0,1555.0,1555.0,1559.0,1566.0,1569.0,1573.0,1577.0,1582.0,1584.0,1589.0,1592.0,1593.0,1600.0,1606.0,1609.0,1615.0,1616.0,1618.0,1623.0,1625.0,1631.0,1636.0,1632.0,1636.0,1638.0,1641.0,1642.0,1648.0,1648.0,1647.0,1648.0,1651.0,1651.0,1653.0,1654.0,1651.0,1649.0,1648.0,1649.0,1647.0,1646.0,1645.0,1643.0,1639.0,1640.0,1638.0,1638.0,1636.0,1633.0,1629.0,1627.0,1627.0,1625.0,1625.0,1622.0,1617.0,1612.0,1609.0,1603.0,1600.0,1598.0,1592.0,1592.0,1586.0,1583.0,1582.0,1576.0,1574.0,1570.0,1567.0,1564.0,1561.0,1563.0,1561.0,1558.0,1555.0,1553.0,1556.0,1552.0,1545.0,1545.0,1540.0,1543.0,1542.0,1538.0,1537.0,1533.0,1535.0,1532.0,1531.0,1530.0,1531.0,1529.0,1528.0,1527.0,1528.0,1526.0,1524.0,1523.0,1527.0,1525.0,1536.0,1559.0,1259.0,629.0,0.0,0.0,0.0,0.0,0.0,0.0,542.0,819.0,1266.0,1441.0,1575.0,1624.0,1538.0,1531.0,1527.0,1530.0,1529.0,1529.0,1530.0,1531.0,1533.0,1537.0,1539.0,1541.0,1542.0,1543.0,1542.0,1545.0,1550.0,1546.0,1549.0,1549.0,1549.0,1547.0,1550.0,1550.0,1549.0,1550.0,1544.0,1546.0,1543.0,1537.0,1531.0,1524.0,1518.0,1518.0,1511.0,1505.0,1500.0,1495.0,1482.0,1478.0,1468.0,1460.0,1454.0,1449.0,1440.0,1438.0,1432.0,1426.0,1421.0,1415.0,1410.0,1412.0,1404.0,1402.0,1397.0,1394.0,1396.0,1395.0,1393.0,1393.0,1388.0,1387.0,1389.0,1388.0,1386.0,1388.0,1391.0,1388.0,1388.0,1390.0,1389.0,1389.0,1393.0,1391.0,1396.0,1390.0,1394.0,1397.0,1399.0,1400.0,1397.0,1400.0,1401.0,1401.0,1404.0,1405.0,1404.0,1409.0,1410.0,1411.0,1411.0,1418.0,1415.0,1415.0,1418.0,1422.0,1420.0,1420.0,1422.0,1418.0,1416.0,1421.0,1421.0,1419.0,1423.0,1422.0,1420.0,1420.0,1420.0,1421.0,1420.0,1420.0,1423.0,1424.0,1425.0,1425.0,1426.0,1426.0,1427.0,1426.0,1428.0,1426.0,1428.0,1424.0,1425.0,1424.0,1423.0,1426.0,1425.0,1426.0,1425.0,1427.0,1428.0,1427.0,1427.0,1429.0,1432.0,1432.0,1433.0,1437.0,1439.0,1439.0,1440.0,1444.0,1444.0,1443.0,1445.0,1451.0,1454.0,1456.0,1458.0,1463.0,1463.0,1468.0,1470.0,1471.0,1472.0,1477.0,1479.0,1482.0,1485.0,1482.0,1483.0,1486.0,1486.0,1488.0,1491.0,1492.0,1493.0,1491.0,1491.0,1494.0,1493.0,1494.0,1496.0,1496.0,1499.0,1496.0,1496.0,1498.0,1494.0,1497.0,1495.0,1496.0,1494.0,1493.0,1488.0,1487.0,1486.0,1481.0,1480.0,1479.0,1479.0,1475.0,1466.0,1465.0,1461.0,1460.0,1456.0,1453.0,1447.0,1442.0,1436.0,1431.0,1428.0,1425.0,1418.0,1412.0,1402.0,1394.0,1394.0,1387.0,1385.0,1379.0,1375.0,1371.0,1365.0,1364.0,1364.0,1354.0,1352.0,1347.0,1344.0,1340.0,1336.0,1335.0,1335.0,1328.0,1325.0,1320.0,1320.0,1315.0,1311.0,1306.0,1304.0,1301.0,1297.0,1299.0,1295.0,1292.0,1292.0,1287.0,1286.0,1289.0,1289.0,1286.0,1281.0,1283.0,1278.0,1279.0,1279.0,1277.0,1273.0,1275.0,1271.0,1269.0,1271.0,1272.0,1271.0,1268.0,1265.0,1271.0,1271.0,1272.0,1270.0,1273.0,1272.0,1275.0,1273.0,1276.0,1276.0,1277.0,1280.0,1282.0,1285.0,1287.0,1289.0,1290.0,1294.0,1296.0,1299.0,1299.0,1302.0,1307.0,1312.0,1316.0,1315.0,1322.0,1326.0,1328.0,1328.0,1328.0,1333.0,1335.0,1339.0,1340.0,1340.0,1344.0,1344.0,1345.0,1345.0,1351.0,1352.0,1357.0,1356.0,1360.0,1359.0,1359.0,1363.0,1363.0,1362.0,1364.0,1363.0,1365.0,1364.0,1366.0,1365.0,1367.0,1377.0,1392.0,971.0,0.0,0.0,0.0,0.0,0.0,0.0,0.0,0.0,0.0,344.0,636.0,1191.0,1411.0,1473.0,1424.0,1419.0,1423.0,1422.0,1425.0,1430.0,1439.0,1440.0,1443.0,1445.0,1449.0,1455.0,1455.0,1454.0,1460.0,1461.0,1464.0,1465.0,1466.0,1468.0,1470.0,1469.0,1472.0,1469.0,1465.0,1465.0,1460.0,1459.0,1452.0,1447.0,1442.0,1441.0,1427.0","1","odd","NA","NA","NA","arithmetic","49423","153124","NA","46635","158125","NA","46212","NA","NA","1576","151619","NA","153125","NA","1659","NA","NA","NA","158429","NA","149336","NA","158126","NA","151267","NA","148458","NA","46636","3126","NA","NA","NA","NA","46212","149336","NA","Extended template","0","0","0","yes","1024"
"undefined","undefined","undefined","undefined","black","yes","xpyriment","legacy","legacy","0","uniform","undefined","undefined","0","11","NA","0","11","NA","0","0","0","0","11","NA","11","NA","0","0","NA","NA","11","NA","11","NA","11","NA","11","NA","11","NA","0","0","0","0","NA","NA","0","11","NA","10/18/18 13:39:13","A template containing a practice and an experimental phase","hard","yes","Experiment.osexp","C:\Users\EEGExp\Desktop","no","mono","no","18","no","white","no","Ok","yes","768","legacy","11","11","0","C:/Users/EEGExp/Desktop/subject-1.csv","xpyriment","Kafkaesque Koffka","3.2.5","yes","[ 1554.  1566.  1569.  1579.  1581.  1590.  1593.  1598.  1601.  1606.
  1613.  1615.  1621.  1627.  1634.  1637.  1643.  1647.  1652.  1657.
  1660.  1670.  1673.  1675.  1684.  1686.  1689.  1694.  1698.  1705.
  1708.  1715.  1714.  1718.  1726.  1731.  1734.  1735.  1741.  1744.
  1750.  1754.  1760.  1765.  1769.  1770.  1778.  1778.  1780.  1780.
  1783.  1784.  1784.  1790.  1791.  1790.  1789.  1788.  1789.  1784.
  1787.  1782.  1782.  1780.  1775.  1777.  1774.  1772.  1771.  1766.
  1763.  1760.  1757.  1750.  1746.  1749.  1746.  1743.  1745.  1741.
  1738.  1737.  1736.  1739.  1738.  1740.  1737.  1742.  1740.  1748.
  1749.  1750.  1750.  1756.  1759.  1762.  1767.  1769.  1777.  1775.
  1781.  1784.  1786.  1790.  1797.  1796.  1799.  1800.  1808.  1807.
  1805.  1806.  1810.  1810.  1814.  1812.  1811.  1813.  1813.  1812.
  1811.  1807.  1810.  1809.  1810.  1807.  1809.  1805.  1807.  1802.
  1803.  1802.  1798.  1800.  1795.  1795.  1795.  1796.  1794.  1792.
  1798.  1809.  1812.   938.   853.  1553.  1851.  1821.  1854.  1769.
  1767.  1762.  1757.  1750.  1745.  1742.  1738.  1734.  1727.  1728.
  1725.  1720.  1720.  1718.  1716.  1715.  1732.  1729.  1730.  1725.
  1726.  1725.  1722.  1721.  1721.  1717.  1715.  1709.  1707.  1702.
  1703.  1698.  1696.  1694.  1689.  1687.  1686.  1681.  1678.  1678.
  1675.  1670.  1664.  1664.  1660.  1658.  1650.  1649.  1643.  1637.
  1638.  1634.  1626.  1625.  1620.  1617.  1615.  1613.  1615.  1610.
  1610.  1612.  1610.  1612.  1615.  1614.  1618.  1621.  1622.  1629.
  1631.  1635.  1638.  1639.  1642.  1644.  1650.  1652.  1657.  1661.
  1665.  1665.  1672.  1673.  1675.  1680.  1680.  1685.  1688.  1689.
  1688.  1689.  1690.  1688.  1688.  1682.  1684.  1682.  1684.  1677.
  1674.  1672.  1663.  1656.  1658.  1653.  1647.  1645.  1645.  1647.
  1645.  1645.  1644.  1644.  1646.  1650.  1654.  1652.  1657.  1657.
  1660.  1663.  1675.  1677.  1681.  1684.  1690.  1694.  1695.  1699.
  1704.  1710.  1717.  1704.   867.   849.  1545.  1737.  1783.  1882.
  1752.  1752.  1748.  1750.  1745.  1746.  1752.  1751.  1751.  1754.
  1753.  1753.  1757.  1757.  1760.  1762.  1762.  1764.  1764.  1764.
  1762.  1760.  1756.  1749.  1745.  1735.  1722.  1710.  1699.  1679.
  1667.  1649.  1634.  1620.  1603.  1589.  1576.  1566.  1549.  1538.
  1525.  1513.  1498.  1496.  1483.  1467.  1455.  1450.  1446.  1433.
  1429.  1424.  1416.  1408.  1404.  1401.  1396.  1392.  1389.  1385.
  1380.  1380.  1377.  1378.  1378.  1376.  1379.  1377.  1380.  1376.
  1380.  1381.  1383.  1384.  1386.  1390.  1390.  1388.  1395.  1397.
  1396.  1399.  1401.  1403.  1402.  1405.  1407.  1409.  1413.  1412.
  1417.  1419.  1421.  1424.  1427.  1428.  1429.  1437.  1434.  1434.
  1435.  1441.  1441.  1442.  1444.  1448.  1450.  1450.  1454.  1454.
  1457.  1458.  1459.  1461.  1463.  1467.  1469.  1470.  1471.  1474.
  1478.  1480.  1480.  1487.  1485.  1488.  1489.  1494.  1493.  1500.
  1501.  1501.  1507.  1509.  1512.  1513.  1516.  1520.  1524.  1528.
  1528.  1530.  1536.  1535.  1544.  1544.  1544.  1547.  1549.  1548.
  1551.  1547.  1549.  1552.  1548.  1547.  1545.  1543.  1533.  1534.
  1538.  1553.  1114.   512.   779.  1242.  1470.  1553.  1587.  1521.
