"acc","accuracy","average_response_time","avg_rt","background","bidi","canvas_backend","clock_backend","color_backend","compensation","coordinates","correct","correct_instructions","count_arithmetic","count_arithmetic_task","count_blank_screen_1","count_blocksequence","count_calc_slope","count_calc_slope_1","count_collect_pupil_trace","count_end_of_experiment","count_end_of_practice","count_experiment","count_fixation_cross","count_fixation_cross_1","count_getdata","count_getdata_1","count_instructions","count_instructions2","count_letter_task_1","count_new_inline_script","count_new_logger","count_new_logger_1","count_new_pygaze_drift_correct","count_new_pygaze_drift_correct_1","count_new_pygaze_log","count_new_pygaze_log_2","count_new_pygaze_start_recording","count_new_pygaze_start_recording_1","count_new_pygaze_stop_recording","count_new_pygaze_stop_recording_1","count_practice_instructions","count_pygaze_init","count_reset_feedback","count_reversal","count_test","count_test1","count_training","count_trial_sequence","count_trial_sequence_1","datetime","description","difficulty","disable_garbage_collection","experiment_file","experiment_path","font_bold","font_family","font_italic","font_size","font_underline","foreground","form_clicks","form_response","fullscreen","height","keyboard_backend","live_row","live_row_arithmetic","live_row_training","logfile","mouse_backend","opensesame_codename","opensesame_version","practice","pupilsizes","question_no","repeat_cycle","response","response_end_of_experiment","response_end_of_practice","response_instructions","response_time","response_time_end_of_experiment","response_time_end_of_practice","response_time_instructions","result","round_decimals","sampler_backend","slope","sound_buf_size","sound_channels","sound_freq","sound_sample_size","start","str_pupilsizes","subject_nr","subject_parity","t0","t1","t2","tasktype","time_arithmetic","time_arithmetic_task","time_blank_screen_1","time_blocksequence","time_calc_slope","time_calc_slope_1","time_collect_pupil_trace","time_end_of_experiment","time_end_of_practice","time_experiment","time_fixation_cross","time_fixation_cross_1","time_getdata","time_getdata_1","time_instructions","time_instructions2","time_letter_task_1","time_new_inline_script","time_new_logger","time_new_logger_1","time_new_pygaze_drift_correct","time_new_pygaze_drift_correct_1","time_new_pygaze_log","time_new_pygaze_log_2","time_new_pygaze_start_recording","time_new_pygaze_start_recording_1","time_new_pygaze_stop_recording","time_new_pygaze_stop_recording_1","time_practice_instructions","time_pygaze_init","time_reset_feedback","time_reversal","time_test","time_test1","time_training","time_trial_sequence","time_trial_sequence_1","title","total_correct","total_response_time","total_responses","uniform_coordinates","width"
"undefined","undefined","undefined","undefined","black","yes","xpyriment","legacy","legacy","0","uniform","undefined","undefined","0","0","NA","0","0","NA","0","0","0","0","0","NA","0","NA","0","0","NA","NA","0","NA","0","NA","0","NA","0","NA","0","NA","0","0","0","0","NA","NA","0","0","NA","10/18/18 13:48:04","A template containing a practice and an experimental phase","medium","yes","Experiment.osexp","C:\Users\EEGExp\Desktop","no","mono","no","18","no","white","no","Ok","yes","768","legacy","0","0","0","C:/Users/EEGExp/Desktop/subject-2.csv","xpyriment","Kafkaesque Koffka","3.2.5","yes","[ 2793.  2794.  2794.  2790.  2791.  2794.  2790.  2790.  2792.  2791.
  2787.  2790.  2789.  2788.  2790.  2791.  2792.  2796.  2796.  2798.
  2798.  2798.  2796.  2795.  2797.  2794.  2796.  2795.  2791.  2790.
  2789.  2791.  2787.  2790.  2788.  2788.  2785.  2786.  2784.  2784.
  2780.  2780.  2780.  2781.  2780.  2779.  2778.  2781.  2783.  2783.
  2780.  2779.  2780.  2785.  2783.  2785.  2784.  2784.  2789.  2789.
  2790.  2791.  2795.  2794.  2797.  2802.  2806.  2811.  2815.  2823.
  2822.  2831.  2835.  2840.  2846.  2851.  2860.  2857.  2863.  2870.
  2876.  2882.  2888.  2893.  2897.  2902.  2909.  2914.  2919.  2919.
  2923.  2932.  2932.  2938.  2943.  2943.  2953.  2957.  2958.  2963.
  2970.  2970.  2974.  2977.  2985.  2993.  2991.  2996.  3001.  3002.
  3009.  3011.  3015.  3024.  3022.  3026.  3030.  3035.  3034.  3047.
  3053.  3056.  3058.  3064.  3066.  3074.  3074.  3081.  3086.  3081.
  3085.  3088.  3091.  3093.  3096.  3102.  3107.  3106.  3108.  3108.
  3111.  3110.  3112.  3115.  3113.  3116.  3110.  3111.  3110.  3109.
  3105.  3105.  3104.  3092.  3094.  3086.  3086.  3084.  3080.  3079.
  3076.  3074.  3070.  3069.  3070.  3068.  3063.  3059.  3060.  3061.
  3053.  3049.  3051.  3049.  3047.  3048.  3044.  3042.  3041.  3039.
  3039.  3036.  3034.  3038.  3031.  3030.  3033.  3027.  3024.  3026.
  3025.  3023.  3024.  3027.  3029.  3021.  3022.  3019.  3022.  3023.
  3025.  3029.  3027.  3027.  3028.  3033.  3030.  3033.  3041.  3042.
  3041.  3043.  3046.  3045.  3050.  3051.  3050.  3045.  3045.  3045.
  3045.  3032.  3031.  3024.  3016.  3007.  2999.  2989.  2979.  2968.
  2959.  2953.  2949.  2941.  2929.  2927.  2915.  2912.  2903.  2899.
  2896.  2890.  2889.  2879.  2878.  2877.  2874.  2873.  2872.  2871.
  2868.  2869.  2870.  2867.  2869.  2872.  2868.  2874.  2871.  2869.
  2868.  2869.  2869.  2869.  2869.  2869.  2872.  2873.  2874.  2877.
  2882.  2881.  2882.  2887.  2893.  2895.  2900.  2901.  2905.  2912.
  2915.  2920.  2926.  2930.  2934.  2941.  2944.  2948.  2953.  2955.
  2961.  2966.  2966.  2969.  2972.  2972.  2979.  2977.  2976.  2978.
  2981.  2981.  2977.  2975.  2972.  2968.  2966.  2963.  2956.  2951.
  2944.  2935.  2926.  2916.  2901.  2891.  2878.  2872.  2857.  2844.
  2829.  2819.  2803.  2795.  2784.  2772.  2767.  2760.  2747.  2746.
  2733.  2729.  2721.  2714.  2707.  2702.  2699.  2693.  2693.  2692.
  2691.  2688.  2686.  2682.  2682.  2679.  2677.  2681.  2679.  2676.
  2674.  2670.  2673.  2669.  2668.  2668.  2668.  2667.  2665.  2664.
  2663.  2662.  2662.  2659.  2660.  2661.  2661.  2657.  2657.  2660.
  2658.  2659.  2654.  2655.  2659.  2657.  2655.  2659.  2657.  2655.
  2653.  2653.  2651.  2652.  2649.  2647.  2645.  2642.  2642.  2641.
  2638.  2635.  2633.  2629.  2633.  2632.  2633.  2627.  2629.  2629.
  2619.  2618.  2619.  2612.  2613.  2609.  2609.  2603.  2601.  2606.
  2599.  2597.  2595.  2592.  2589.  2590.  2589.  2590.  2588.  2585.
  2590.  2588.  2586.  2585.  2587.  2584.  2592.  2594.  2601.  2608.
  2607.  2616.  2618.  2626.  2628.  2635.  2638.  2643.  2648.  2653.
  2656.  2663.  2669.  2671.  2675.  2678.  2685.  2686.  2694.  2692.
  2691.  2690.  2691.  2691.  2688.  2685.  2688.  2680.  2678.  2674.
  2669.  2661.  2659.  2651.  2644.  2640.  2632.  2631.  2622.  2618.
  2611.  2605.  2599.  2596.  2591.  2587.  2576.  2568.  2568.  2556.
  2554.  2552.  2547.  2544.  2538.  2534.  2529.  2532.  2521.  2521.
  2513.  2507.  2508.  2507.  2499.  2492.  2491.  2483.  2481.  2475.]","2x = 6","0","space","NA","NA","space","2806","NA","NA","2806","LinregressResult(slope=-0.76058973035892141, intercept=3021.8117274549099, rvalue=-0.63706915543353781, pvalue=2.7957207143265548e-58, stderr=0.041237721357805193)","2","legacy","-0.760589730359","1024","2","48000","-16","experiment","2793.0,2794.0,2794.0,2790.0,2791.0,2794.0,2790.0,2790.0,2792.0,2791.0,2787.0,2790.0,2789.0,2788.0,2790.0,2791.0,2792.0,2796.0,2796.0,2798.0,2798.0,2798.0,2796.0,2795.0,2797.0,2794.0,2796.0,2795.0,2791.0,2790.0,2789.0,2791.0,2787.0,2790.0,2788.0,2788.0,2785.0,2786.0,2784.0,2784.0,2780.0,2780.0,2780.0,2781.0,2780.0,2779.0,2778.0,2781.0,2783.0,2783.0,2780.0,2779.0,2780.0,2785.0,2783.0,2785.0,2784.0,2784.0,2789.0,2789.0,2790.0,2791.0,2795.0,2794.0,2797.0,2802.0,2806.0,2811.0,2815.0,2823.0,2822.0,2831.0,2835.0,2840.0,2846.0,2851.0,2860.0,2857.0,2863.0,2870.0,2876.0,2882.0,2888.0,2893.0,2897.0,2902.0,2909.0,2914.0,2919.0,2919.0,2923.0,2932.0,2932.0,2938.0,2943.0,2943.0,2953.0,2957.0,2958.0,2963.0,2970.0,2970.0,2974.0,2977.0,2985.0,2993.0,2991.0,2996.0,3001.0,3002.0,3009.0,3011.0,3015.0,3024.0,3022.0,3026.0,3030.0,3035.0,3034.0,3047.0,3053.0,3056.0,3058.0,3064.0,3066.0,3074.0,3074.0,3081.0,3086.0,3081.0,3085.0,3088.0,3091.0,3093.0,3096.0,3102.0,3107.0,3106.0,3108.0,3108.0,3111.0,3110.0,3112.0,3115.0,3113.0,3116.0,3110.0,3111.0,3110.0,3109.0,3105.0,3105.0,3104.0,3092.0,3094.0,3086.0,3086.0,3084.0,3080.0,3079.0,3076.0,3074.0,3070.0,3069.0,3070.0,3068.0,3063.0,3059.0,3060.0,3061.0,3053.0,3049.0,3051.0,3049.0,3047.0,3048.0,3044.0,3042.0,3041.0,3039.0,3039.0,3036.0,3034.0,3038.0,3031.0,3030.0,3033.0,3027.0,3024.0,3026.0,3025.0,3023.0,3024.0,3027.0,3029.0,3021.0,3022.0,3019.0,3022.0,3023.0,3025.0,3029.0,3027.0,3027.0,3028.0,3033.0,3030.0,3033.0,3041.0,3042.0,3041.0,3043.0,3046.0,3045.0,3050.0,3051.0,3050.0,3045.0,3045.0,3045.0,3045.0,3032.0,3031.0,3024.0,3016.0,3007.0,2999.0,2989.0,2979.0,2968.0,2959.0,2953.0,2949.0,2941.0,2929.0,2927.0,2915.0,2912.0,2903.0,2899.0,2896.0,2890.0,2889.0,2879.0,2878.0,2877.0,2874.0,2873.0,2872.0,2871.0,2868.0,2869.0,2870.0,2867.0,2869.0,2872.0,2868.0,2874.0,2871.0,2869.0,2868.0,2869.0,2869.0,2869.0,2869.0,2869.0,2872.0,2873.0,2874.0,2877.0,2882.0,2881.0,2882.0,2887.0,2893.0,2895.0,2900.0,2901.0,2905.0,2912.0,2915.0,2920.0,2926.0,2930.0,2934.0,2941.0,2944.0,2948.0,2953.0,2955.0,2961.0,2966.0,2966.0,2969.0,2972.0,2972.0,2979.0,2977.0,2976.0,2978.0,2981.0,2981.0,2977.0,2975.0,2972.0,2968.0,2966.0,2963.0,2956.0,2951.0,2944.0,2935.0,2926.0,2916.0,2901.0,2891.0,2878.0,2872.0,2857.0,2844.0,2829.0,2819.0,2803.0,2795.0,2784.0,2772.0,2767.0,2760.0,2747.0,2746.0,2733.0,2729.0,2721.0,2714.0,2707.0,2702.0,2699.0,2693.0,2693.0,2692.0,2691.0,2688.0,2686.0,2682.0,2682.0,2679.0,2677.0,2681.0,2679.0,2676.0,2674.0,2670.0,2673.0,2669.0,2668.0,2668.0,2668.0,2667.0,2665.0,2664.0,2663.0,2662.0,2662.0,2659.0,2660.0,2661.0,2661.0,2657.0,2657.0,2660.0,2658.0,2659.0,2654.0,2655.0,2659.0,2657.0,2655.0,2659.0,2657.0,2655.0,2653.0,2653.0,2651.0,2652.0,2649.0,2647.0,2645.0,2642.0,2642.0,2641.0,2638.0,2635.0,2633.0,2629.0,2633.0,2632.0,2633.0,2627.0,2629.0,2629.0,2619.0,2618.0,2619.0,2612.0,2613.0,2609.0,2609.0,2603.0,2601.0,2606.0,2599.0,2597.0,2595.0,2592.0,2589.0,2590.0,2589.0,2590.0,2588.0,2585.0,2590.0,2588.0,2586.0,2585.0,2587.0,2584.0,2592.0,2594.0,2601.0,2608.0,2607.0,2616.0,2618.0,2626.0,2628.0,2635.0,2638.0,2643.0,2648.0,2653.0,2656.0,2663.0,2669.0,2671.0,2675.0,2678.0,2685.0,2686.0,2694.0,2692.0,2691.0,2690.0,2691.0,2691.0,2688.0,2685.0,2688.0,2680.0,2678.0,2674.0,2669.0,2661.0,2659.0,2651.0,2644.0,2640.0,2632.0,2631.0,2622.0,2618.0,2611.0,2605.0,2599.0,2596.0,2591.0,2587.0,2576.0,2568.0,2568.0,2556.0,2554.0,2552.0,2547.0,2544.0,2538.0,2534.0,2529.0,2532.0,2521.0,2521.0,2513.0,2507.0,2508.0,2507.0,2499.0,2492.0,2491.0,2483.0,2481.0,2475.0","2","even","NA","NA","NA","arithmetic","48412","54861","NA","45318","59862","NA","44894","NA","NA","1616","53357","NA","54862","NA","1701","NA","NA","NA","60168","NA","48735","NA","59864","NA","53007","NA","NA","NA","45318","4507","NA","NA","NA","NA","44894","48735","NA","Extended template","0","0","0","yes","1024"
"undefined","undefined","undefined","undefined","black","yes","xpyriment","legacy","legacy","0","uniform","undefined","undefined","0","1","NA","0","1","NA","0","0","0","0","1","NA","1","NA","0","0","NA","NA","1","NA","1","NA","1","NA","1","NA","1","NA","0","0","0","0","NA","NA","0","1","NA","10/18/18 13:48:04","A template containing a practice and an experimental phase","easy","yes","Experiment.osexp","C:\Users\EEGExp\Desktop","no","mono","no","18","no","white","no","Ok","yes","768","legacy","1","1","0","C:/Users/EEGExp/Desktop/subject-2.csv","xpyriment","Kafkaesque Koffka","3.2.5","yes","[ 2654.  2648.  2648.  2642.  2639.  2638.  2631.  2631.  2631.  2626.
  2630.  2629.  2629.  2630.  2631.  2633.  2637.  2639.  2640.  2641.
  2641.  2647.  2650.  2654.  2657.  2663.  2665.  2672.  2672.  2681.
  2684.  2690.  2692.  2701.  2706.  2712.  2720.  2730.  2733.  2741.
  2747.  2750.  2755.  2763.  2772.  2778.  2782.  2788.  2797.  2802.
  2804.  2809.  2815.  2818.  2818.  2816.  2819.  2817.  2816.  2814.
  2804.  2800.  2796.  2785.  2777.  2770.  2760.  2754.  2745.  2737.
  2725.  2715.  2711.  2702.  2689.  2690.  2681.  2675.  2673.  2667.
  2665.  2659.  2657.  2655.  2654.  2655.  2653.  2654.  2653.  2656.
  2659.  2658.  2665.  2669.  2673.  2675.  2680.  2682.  2686.  2691.
  2694.  2703.  2708.  2713.  2718.  2721.  2723.  2728.  2731.  2735.
  2740.  2743.  2745.  2750.  2754.  2755.  2760.  2761.  2767.  2765.
  2769.  2774.  2773.  2774.  2785.  2786.  2791.  2793.  2795.  2804.
  2806.  2807.  2815.  2819.  2821.  2823.  2826.  2833.  2830.  2831.
  2835.  2832.  2832.  2829.  2827.  2822.  2814.  2810.  2808.  2801.
  2795.  2788.  2783.  2775.  2769.  2762.  2757.  2752.  2746.  2744.
  2742.  2738.  2736.  2730.  2730.  2723.  2724.  2720.  2722.  2717.
  2712.  2712.  2711.  2711.  2705.  2703.  2700.  2699.  2698.  2696.
  2691.  2691.  2689.  2681.  2679.  2674.  2670.  2669.  2664.  2659.
  2659.  2655.  2653.  2652.  2649.  2645.  2646.  2643.  2640.  2637.
  2636.  2635.  2634.  2635.  2635.  2633.  2631.  2632.  2632.  2633.
  2629.  2631.  2629.  2630.  2633.  2634.  2636.  2637.  2639.  2638.
  2640.  2640.  2642.  2645.  2645.  2647.  2650.  2647.  2649.  2652.
  2657.  2659.  2658.  2661.  2663.  2662.  2660.  2665.  2667.  2670.
  2672.  2674.  2675.  2672.  2674.  2678.  2678.  2678.  2681.  2680.
  2677.  2676.  2676.  2675.  2675.  2666.  2667.  2663.  2658.  2659.
  2658.  2655.  2654.  2654.  2650.  2650.  2646.  2645.  2640.  2632.
  2632.  2622.  2618.  2605.  2600.  2595.  2586.  2577.  2566.  2552.
  2550.  2534.  2527.  2518.  2505.  2499.  2485.  2480.  2469.  2458.
  2451.  2446.  2439.  2436.  2430.  2427.  2421.  2420.  2417.  2417.
  2416.  2412.  2420.  2414.  2417.  2417.  2418.  2419.  2420.  2423.
  2421.  2423.  2424.  2423.  2422.  2419.  2422.  2416.  2413.  2412.
  2408.  2403.  2401.  2394.  2390.  2387.  2378.  2370.  2370.  2364.
  2357.  2353.  2347.  2345.  2333.  2327.  2329.  2323.  2322.  2321.
  2316.  2317.  2318.  2314.  2316.  2316.  2323.  2325.  2325.  2329.
  2333.  2342.  2352.  2355.  2359.  2364.  2375.  2379.  2389.  2394.
  2398.  2408.  2415.  2426.  2435.  2443.  2453.  2458.  2462.  2473.
  2481.  2484.  2493.  2501.  2511.  2515.  2519.  2530.  2534.  2539.
  2553.  2553.  2558.  2566.  2567.  2576.  2582.  2584.  2595.  2596.
  2600.  2607.  2608.  2615.  2613.  2616.  2624.  2626.  2633.  2637.
  2642.  2645.  2648.  2660.  2666.  2671.  2676.  2680.  2688.  2694.
  2699.  2706.  2712.  2708.  2717.  2720.  2724.  2727.  2725.  2722.
  2720.  2721.  2723.  2722.  2719.  2715.  2714.  2705.  2700.  2701.
  2690.  2683.  2676.  2664.  2656.  2652.  2639.  2628.  2621.  2616.
  2610.  2604.  2596.  2589.  2584.  2585.  2582.  2581.  2575.  2577.
  2574.  2575.  2569.  2571.  2572.  2569.  2567.  2563.  2560.  2564.
  2563.  2564.  2564.  2564.  2564.  2564.  2563.  2563.  2561.  2557.
  2560.  2557.  2557.  2559.  2554.  2558.  2560.  2551.  2553.  2556.
  2555.  2555.  2551.  2552.  2553.  2556.  2553.  2557.  2556.  2564.
  2561.  2564.  2562.  2562.  2560.  2555.  2557.  2546.  2539.  2537.]","1 + 8","0","space","NA","NA","space","2806","NA","NA","2806","LinregressResult(slope=-0.47990164760659032, intercept=2741.4933627254509, rvalue=-0.5433721559907303, pvalue=9.4665232591327169e-40, stderr=0.033224366968295602)","2","legacy","-0.479901647607","1024","2","48000","-16","experiment","2654.0,2648.0,2648.0,2642.0,2639.0,2638.0,2631.0,2631.0,2631.0,2626.0,2630.0,2629.0,2629.0,2630.0,2631.0,2633.0,2637.0,2639.0,2640.0,2641.0,2641.0,2647.0,2650.0,2654.0,2657.0,2663.0,2665.0,2672.0,2672.0,2681.0,2684.0,2690.0,2692.0,2701.0,2706.0,2712.0,2720.0,2730.0,2733.0,2741.0,2747.0,2750.0,2755.0,2763.0,2772.0,2778.0,2782.0,2788.0,2797.0,2802.0,2804.0,2809.0,2815.0,2818.0,2818.0,2816.0,2819.0,2817.0,2816.0,2814.0,2804.0,2800.0,2796.0,2785.0,2777.0,2770.0,2760.0,2754.0,2745.0,2737.0,2725.0,2715.0,2711.0,2702.0,2689.0,2690.0,2681.0,2675.0,2673.0,2667.0,2665.0,2659.0,2657.0,2655.0,2654.0,2655.0,2653.0,2654.0,2653.0,2656.0,2659.0,2658.0,2665.0,2669.0,2673.0,2675.0,2680.0,2682.0,2686.0,2691.0,2694.0,2703.0,2708.0,2713.0,2718.0,2721.0,2723.0,2728.0,2731.0,2735.0,2740.0,2743.0,2745.0,2750.0,2754.0,2755.0,2760.0,2761.0,2767.0,2765.0,2769.0,2774.0,2773.0,2774.0,2785.0,2786.0,2791.0,2793.0,2795.0,2804.0,2806.0,2807.0,2815.0,2819.0,2821.0,2823.0,2826.0,2833.0,2830.0,2831.0,2835.0,2832.0,2832.0,2829.0,2827.0,2822.0,2814.0,2810.0,2808.0,2801.0,2795.0,2788.0,2783.0,2775.0,2769.0,2762.0,2757.0,2752.0,2746.0,2744.0,2742.0,2738.0,2736.0,2730.0,2730.0,2723.0,2724.0,2720.0,2722.0,2717.0,2712.0,2712.0,2711.0,2711.0,2705.0,2703.0,2700.0,2699.0,2698.0,2696.0,2691.0,2691.0,2689.0,2681.0,2679.0,2674.0,2670.0,2669.0,2664.0,2659.0,2659.0,2655.0,2653.0,2652.0,2649.0,2645.0,2646.0,2643.0,2640.0,2637.0,2636.0,2635.0,2634.0,2635.0,2635.0,2633.0,2631.0,2632.0,2632.0,2633.0,2629.0,2631.0,2629.0,2630.0,2633.0,2634.0,2636.0,2637.0,2639.0,2638.0,2640.0,2640.0,2642.0,2645.0,2645.0,2647.0,2650.0,2647.0,2649.0,2652.0,2657.0,2659.0,2658.0,2661.0,2663.0,2662.0,2660.0,2665.0,2667.0,2670.0,2672.0,2674.0,2675.0,2672.0,2674.0,2678.0,2678.0,2678.0,2681.0,2680.0,2677.0,2676.0,2676.0,2675.0,2675.0,2666.0,2667.0,2663.0,2658.0,2659.0,2658.0,2655.0,2654.0,2654.0,2650.0,2650.0,2646.0,2645.0,2640.0,2632.0,2632.0,2622.0,2618.0,2605.0,2600.0,2595.0,2586.0,2577.0,2566.0,2552.0,2550.0,2534.0,2527.0,2518.0,2505.0,2499.0,2485.0,2480.0,2469.0,2458.0,2451.0,2446.0,2439.0,2436.0,2430.0,2427.0,2421.0,2420.0,2417.0,2417.0,2416.0,2412.0,2420.0,2414.0,2417.0,2417.0,2418.0,2419.0,2420.0,2423.0,2421.0,2423.0,2424.0,2423.0,2422.0,2419.0,2422.0,2416.0,2413.0,2412.0,2408.0,2403.0,2401.0,2394.0,2390.0,2387.0,2378.0,2370.0,2370.0,2364.0,2357.0,2353.0,2347.0,2345.0,2333.0,2327.0,2329.0,2323.0,2322.0,2321.0,2316.0,2317.0,2318.0,2314.0,2316.0,2316.0,2323.0,2325.0,2325.0,2329.0,2333.0,2342.0,2352.0,2355.0,2359.0,2364.0,2375.0,2379.0,2389.0,2394.0,2398.0,2408.0,2415.0,2426.0,2435.0,2443.0,2453.0,2458.0,2462.0,2473.0,2481.0,2484.0,2493.0,2501.0,2511.0,2515.0,2519.0,2530.0,2534.0,2539.0,2553.0,2553.0,2558.0,2566.0,2567.0,2576.0,2582.0,2584.0,2595.0,2596.0,2600.0,2607.0,2608.0,2615.0,2613.0,2616.0,2624.0,2626.0,2633.0,2637.0,2642.0,2645.0,2648.0,2660.0,2666.0,2671.0,2676.0,2680.0,2688.0,2694.0,2699.0,2706.0,2712.0,2708.0,2717.0,2720.0,2724.0,2727.0,2725.0,2722.0,2720.0,2721.0,2723.0,2722.0,2719.0,2715.0,2714.0,2705.0,2700.0,2701.0,2690.0,2683.0,2676.0,2664.0,2656.0,2652.0,2639.0,2628.0,2621.0,2616.0,2610.0,2604.0,2596.0,2589.0,2584.0,2585.0,2582.0,2581.0,2575.0,2577.0,2574.0,2575.0,2569.0,2571.0,2572.0,2569.0,2567.0,2563.0,2560.0,2564.0,2563.0,2564.0,2564.0,2564.0,2564.0,2564.0,2563.0,2563.0,2561.0,2557.0,2560.0,2557.0,2557.0,2559.0,2554.0,2558.0,2560.0,2551.0,2553.0,2556.0,2555.0,2555.0,2551.0,2552.0,2553.0,2556.0,2553.0,2557.0,2556.0,2564.0,2561.0,2564.0,2562.0,2562.0,2560.0,2555.0,2557.0,2546.0,2539.0,2537.0","2","even","NA","NA","NA","arithmetic","48412","64354","NA","45318","69355","NA","44894","NA","NA","1616","62851","NA","64355","NA","1701","NA","NA","NA","69660","NA","61111","NA","69356","NA","62504","NA","60198","NA","45318","4507","NA","NA","NA","NA","44894","61111","NA","Extended template","0","0","0","yes","1024"
"undefined","undefined","undefined","undefined","black","yes","xpyriment","legacy","legacy","0","uniform","undefined","undefined","0","2","NA","0","2","NA","0","0","0","0","2","NA","2","NA","0","0","NA","NA","2","NA","2","NA","2","NA","2","NA","2","NA","0","0","0","0","NA","NA","0","2","NA","10/18/18 13:48:04","A template containing a practice and an experimental phase","easy","yes","Experiment.osexp","C:\Users\EEGExp\Desktop","no","mono","no","18","no","white","no","Ok","yes","768","legacy","2","2","0","C:/Users/EEGExp/Desktop/subject-2.csv","xpyriment","Kafkaesque Koffka","3.2.5","yes","[ 2359.  2355.  2354.  2351.  2352.  2353.  2350.  2351.  2353.  2352.
  2353.  2353.  2358.  2361.  2364.  2364.  2369.  2373.  2378.  2382.
  2389.  2393.  2397.  2405.  2406.  2415.  2421.  2424.  2430.  2435.
  2441.  2444.  2450.  2460.  2462.  2466.  2474.  2476.  2481.  2489.
  2494.  2498.  2510.  2513.  2521.  2526.  2539.  2540.  2549.  2553.
  2563.  2569.  2574.  2579.  2580.  2585.  2592.  2590.  2595.  2594.
  2594.  2598.  2598.  2599.  2597.  2594.  2591.  2592.  2589.  2585.
  2586.  2584.  2578.  2578.  2576.  2579.  2573.  2565.  2568.  2567.
  2565.  2563.  2560.  2559.  2560.  2554.  2553.  2551.  2549.  2549.
  2546.  2543.  2544.  2540.  2544.  2546.  2544.  2541.  2545.  2545.
  2546.  2547.  2548.  2550.  2556.  2556.  2561.  2560.  2563.  2566.
  2568.  2566.  2565.  2566.  2565.  2560.  2559.  2556.  2554.  2547.
  2546.  2540.  2536.  2526.  2522.  2513.  2511.  2504.  2497.  2494.
  2489.  2485.  2477.  2476.  2468.  2465.  2465.  2465.  2456.  2456.
  2450.  2445.  2451.  2445.  2443.  2439.  2441.  2441.  2441.  2443.
  2443.  2442.  2444.  2446.  2444.  2447.  2451.  2451.  2453.  2454.
  2457.  2460.  2463.  2466.  2467.  2472.  2476.  2484.  2490.  2500.
  2500.  2505.  2514.  2517.  2529.  2532.  2543.  2548.  2554.  2564.
  2575.  2580.  2588.  2593.  2607.  2611.  2614.  2620.  2623.  2634.
  2635.  2645.  2649.  2650.  2653.  2662.  2662.  2660.  2665.  2664.
  2667.  2666.  2665.  2667.  2669.  2659.  2660.  2660.  2654.  2651.
  2644.  2640.  2636.  2633.  2623.  2619.  2614.  2603.  2600.  2590.
  2590.  2584.  2580.  2576.  2566.  2565.  2557.  2557.  2555.  2552.
  2552.  2549.  2548.  2547.  2548.  2549.  2549.  2547.  2549.  2547.
  2544.  2547.  2546.  2543.  2545.  2545.  2548.  2548.  2546.  2549.
  2546.  2548.  2548.  2543.  2544.  2537.  2538.  2533.  2529.  2527.
  2525.  2518.  2521.  2519.  2516.  2512.  2511.  2507.  2505.  2501.
  2496.  2492.  2494.  2485.  2483.  2477.  2476.  2467.  2461.  2460.
  2457.  2458.  2458.  2452.  2450.  2449.  2447.  2445.  2444.  2441.
  2441.  2439.  2437.  2437.  2437.  2433.  2433.  2435.  2432.  2432.
  2432.  2431.  2430.  2436.  2431.  2426.  2427.  2426.  2427.  2426.
  2421.  2426.  2420.  2416.  2415.  2412.  2412.  2413.  2408.  2408.
  2405.  2402.  2396.  2393.  2389.  2382.  2378.  2376.  2375.  2367.
  2364.  2356.  2354.  2353.  2351.  2347.  2340.  2338.  2336.  2333.
  2322.  2320.  2314.  2309.  2308.  2305.  2299.  2295.  2291.  2286.
  2276.  2274.  2266.  2257.  2249.  2243.  2231.  2223.  2215.  2205.
  2197.  2190.  2181.  2171.  2158.  2156.  2148.  2143.  2136.  2130.
  2127.  2122.  2123.  2120.  2113.  2113.  2108.  2105.  2102.  2100.
  2097.  2096.  2093.  2093.  2088.  2088.  2087.  2080.  2073.  2073.
  2069.  2069.  2060.  2057.  2050.  2047.  2041.  2036.  2033.  2029.
  2027.  2023.  2021.  2019.  2019.  2017.  2016.  2018.  2016.  2018.
  2022.  2019.  2025.  2029.  2031.  2038.  2039.  2048.  2048.  2047.
  2054.  2057.  2057.  2062.  2063.  2066.  2070.  2075.  2077.  2076.
  2077.  2080.  2077.  2079.  2079.  2079.  2078.  2077.  2077.  2079.
  2078.  2077.  2079.  2077.  2080.  2076.  2077.  2076.  2075.  2074.
  2069.  2071.  2069.  2068.  2071.  2068.  2067.  2062.  2064.  2062.
  2059.  2066.  2064.  2057.  2057.  2053.  2055.  2044.  2044.  2038.
  2036.  2031.  2029.  2025.  2019.  2018.  2011.  2006.  1998.  1993.
  1984.  1980.  1975.  1965.  1963.  1960.  1956.  1947.  1943.  1937.
  1928.  1927.  1922.  1918.  1918.  1915.  1907.  1902.  1899.  1895.]","2 + 4","0","space","NA","NA","space","2806","NA","NA","2806","LinregressResult(slope=-1.1979521678086713, intercept=2668.3850180360719, rvalue=-0.79547781430207587, pvalue=2.0757418594317214e-110, stderr=0.040893752938230131)","2","legacy","-1.19795216781","1024","2","48000","-16","experiment","2359.0,2355.0,2354.0,2351.0,2352.0,2353.0,2350.0,2351.0,2353.0,2352.0,2353.0,2353.0,2358.0,2361.0,2364.0,2364.0,2369.0,2373.0,2378.0,2382.0,2389.0,2393.0,2397.0,2405.0,2406.0,2415.0,2421.0,2424.0,2430.0,2435.0,2441.0,2444.0,2450.0,2460.0,2462.0,2466.0,2474.0,2476.0,2481.0,2489.0,2494.0,2498.0,2510.0,2513.0,2521.0,2526.0,2539.0,2540.0,2549.0,2553.0,2563.0,2569.0,2574.0,2579.0,2580.0,2585.0,2592.0,2590.0,2595.0,2594.0,2594.0,2598.0,2598.0,2599.0,2597.0,2594.0,2591.0,2592.0,2589.0,2585.0,2586.0,2584.0,2578.0,2578.0,2576.0,2579.0,2573.0,2565.0,2568.0,2567.0,2565.0,2563.0,2560.0,2559.0,2560.0,2554.0,2553.0,2551.0,2549.0,2549.0,2546.0,2543.0,2544.0,2540.0,2544.0,2546.0,2544.0,2541.0,2545.0,2545.0,2546.0,2547.0,2548.0,2550.0,2556.0,2556.0,2561.0,2560.0,2563.0,2566.0,2568.0,2566.0,2565.0,2566.0,2565.0,2560.0,2559.0,2556.0,2554.0,2547.0,2546.0,2540.0,2536.0,2526.0,2522.0,2513.0,2511.0,2504.0,2497.0,2494.0,2489.0,2485.0,2477.0,2476.0,2468.0,2465.0,2465.0,2465.0,2456.0,2456.0,2450.0,2445.0,2451.0,2445.0,2443.0,2439.0,2441.0,2441.0,2441.0,2443.0,2443.0,2442.0,2444.0,2446.0,2444.0,2447.0,2451.0,2451.0,2453.0,2454.0,2457.0,2460.0,2463.0,2466.0,2467.0,2472.0,2476.0,2484.0,2490.0,2500.0,2500.0,2505.0,2514.0,2517.0,2529.0,2532.0,2543.0,2548.0,2554.0,2564.0,2575.0,2580.0,2588.0,2593.0,2607.0,2611.0,2614.0,2620.0,2623.0,2634.0,2635.0,2645.0,2649.0,2650.0,2653.0,2662.0,2662.0,2660.0,2665.0,2664.0,2667.0,2666.0,2665.0,2667.0,2669.0,2659.0,2660.0,2660.0,2654.0,2651.0,2644.0,2640.0,2636.0,2633.0,2623.0,2619.0,2614.0,2603.0,2600.0,2590.0,2590.0,2584.0,2580.0,2576.0,2566.0,2565.0,2557.0,2557.0,2555.0,2552.0,2552.0,2549.0,2548.0,2547.0,2548.0,2549.0,2549.0,2547.0,2549.0,2547.0,2544.0,2547.0,2546.0,2543.0,2545.0,2545.0,2548.0,2548.0,2546.0,2549.0,2546.0,2548.0,2548.0,2543.0,2544.0,2537.0,2538.0,2533.0,2529.0,2527.0,2525.0,2518.0,2521.0,2519.0,2516.0,2512.0,2511.0,2507.0,2505.0,2501.0,2496.0,2492.0,2494.0,2485.0,2483.0,2477.0,2476.0,2467.0,2461.0,2460.0,2457.0,2458.0,2458.0,2452.0,2450.0,2449.0,2447.0,2445.0,2444.0,2441.0,2441.0,2439.0,2437.0,2437.0,2437.0,2433.0,2433.0,2435.0,2432.0,2432.0,2432.0,2431.0,2430.0,2436.0,2431.0,2426.0,2427.0,2426.0,2427.0,2426.0,2421.0,2426.0,2420.0,2416.0,2415.0,2412.0,2412.0,2413.0,2408.0,2408.0,2405.0,2402.0,2396.0,2393.0,2389.0,2382.0,2378.0,2376.0,2375.0,2367.0,2364.0,2356.0,2354.0,2353.0,2351.0,2347.0,2340.0,2338.0,2336.0,2333.0,2322.0,2320.0,2314.0,2309.0,2308.0,2305.0,2299.0,2295.0,2291.0,2286.0,2276.0,2274.0,2266.0,2257.0,2249.0,2243.0,2231.0,2223.0,2215.0,2205.0,2197.0,2190.0,2181.0,2171.0,2158.0,2156.0,2148.0,2143.0,2136.0,2130.0,2127.0,2122.0,2123.0,2120.0,2113.0,2113.0,2108.0,2105.0,2102.0,2100.0,2097.0,2096.0,2093.0,2093.0,2088.0,2088.0,2087.0,2080.0,2073.0,2073.0,2069.0,2069.0,2060.0,2057.0,2050.0,2047.0,2041.0,2036.0,2033.0,2029.0,2027.0,2023.0,2021.0,2019.0,2019.0,2017.0,2016.0,2018.0,2016.0,2018.0,2022.0,2019.0,2025.0,2029.0,2031.0,2038.0,2039.0,2048.0,2048.0,2047.0,2054.0,2057.0,2057.0,2062.0,2063.0,2066.0,2070.0,2075.0,2077.0,2076.0,2077.0,2080.0,2077.0,2079.0,2079.0,2079.0,2078.0,2077.0,2077.0,2079.0,2078.0,2077.0,2079.0,2077.0,2080.0,2076.0,2077.0,2076.0,2075.0,2074.0,2069.0,2071.0,2069.0,2068.0,2071.0,2068.0,2067.0,2062.0,2064.0,2062.0,2059.0,2066.0,2064.0,2057.0,2057.0,2053.0,2055.0,2044.0,2044.0,2038.0,2036.0,2031.0,2029.0,2025.0,2019.0,2018.0,2011.0,2006.0,1998.0,1993.0,1984.0,1980.0,1975.0,1965.0,1963.0,1960.0,1956.0,1947.0,1943.0,1937.0,1928.0,1927.0,1922.0,1918.0,1918.0,1915.0,1907.0,1902.0,1899.0,1895.0","2","even","NA","NA","NA","arithmetic","48412","73454","NA","45318","78455","NA","44894","NA","NA","1616","71950","NA","73455","NA","1701","NA","NA","NA","78760","NA","70597","NA","78456","NA","71599","NA","69674","NA","45318","4507","NA","NA","NA","NA","44894","70597","NA","Extended template","0","0","0","yes","1024"
"undefined","undefined","undefined","undefined","black","yes","xpyriment","legacy","legacy","0","uniform","undefined","undefined","0","3","NA","0","3","NA","0","0","0","0","3","NA","3","NA","0","0","NA","NA","3","NA","3","NA","3","NA","3","NA","3","NA","0","0","0","0","NA","NA","0","3","NA","10/18/18 13:48:04","A template containing a practice and an experimental phase","hard","yes","Experiment.osexp","C:\Users\EEGExp\Desktop","no","mono","no","18","no","white","no","Ok","yes","768","legacy","3","3","0","C:/Users/EEGExp/Desktop/subject-2.csv","xpyriment","Kafkaesque Koffka","3.2.5","yes","[ 2048.  2055.  2062.  2061.  2072.  2080.  2078.  2091.  2099.  2106.
  2114.  2124.  2128.  2137.  2147.  2158.  2165.  2177.  2186.  2200.
  2209.  2218.  2229.  2236.  2253.  2263.  2266.  2273.  2283.  2288.
  2300.  2302.  2305.  2314.  2313.  2317.  2316.  2316.  2318.  2315.
  2317.  2317.  2322.  2324.  2328.  2328.  2327.  2334.  2332.  2337.
  2335.  2341.  2345.  2349.  2352.  2351.  2353.  2358.  2361.  2361.
  2361.  2360.  2364.  2367.  2368.  2374.  2370.  2372.  2373.  2378.
  2380.  2380.  2380.  2380.  2376.  2376.  2380.  2377.  2377.  2371.
  2373.  2369.  2368.  2369.  2367.  2362.  2359.  2359.  2362.  2363.
  2363.  2363.  2362.  2365.  2367.  2364.  2369.  2377.  2378.  2381.
  2382.  2383.  2389.  2391.  2398.  2402.  2410.  2414.  2417.  2420.
  2424.  2429.  2438.  2432.  2437.  2443.  2438.  2442.  2438.  2438.
  2436.  2435.  2438.  2432.  2430.  2428.  2428.  2426.  2421.  2421.
  2419.  2422.  2426.  2425.  2428.  2427.  2433.  2435.  2436.  2442.
  2443.  2446.  2444.  2445.  2450.  2451.  2455.  2452.  2450.  2449.
  2447.  2451.  2464.  2653.  2616.  2474.  2533.  2526.  2530.  2803.
  2453.  2435.  2428.  2418.  2415.  2412.  2408.  2400.  2395.  2395.
  2391.  2384.  2385.  2384.  2381.  2381.  2385.  2382.  2385.  2385.
  2388.  2392.  2397.  2401.  2403.  2413.  2425.  2429.  2429.  2438.
  2444.  2457.  2462.  2469.  2477.  2487.  2492.  2498.  2506.  2516.
  2523.  2530.  2535.  2545.  2546.  2551.  2555.  2561.  2567.  2567.
  2571.  2574.  2581.  2576.  2582.  2581.  2580.  2581.  2583.  2580.
  2584.  2582.  2581.  2586.  2583.  2582.  2583.  2582.  2585.  2586.
  2584.  2583.  2584.  2592.  2592.  2592.  2591.  2598.  2600.  2602.
  2605.  2610.  2611.  2618.  2620.  2629.  2631.  2635.  2643.  2648.
  2652.  2658.  2660.  2670.  2678.  2679.  2683.  2688.  2694.  2703.
  2708.  2719.  2717.  2725.  2728.  2729.  2735.  2736.  2738.  2743.
  2744.  2752.  2748.  2751.  2753.  2754.  2756.  2756.  2759.  2758.
  2760.  2760.  2761.  2762.  2761.  2762.  2760.  2758.  2760.  2757.
  2756.  2755.  2754.  2751.  2751.  2749.  2751.  2745.  2744.  2742.
  2737.  2734.  2734.  2734.  2729.  2729.  2726.  2726.  2724.  2722.
  2725.  2723.  2725.  2724.  2723.  2723.  2724.  2723.  2722.  2726.
  2727.  2728.  2728.  2727.  2728.  2727.  2730.  2729.  2729.  2733.
  2732.  2736.  2736.  2737.  2736.  2742.  2740.  2739.  2740.  2741.
  2744.  2745.  2741.  2743.  2746.  2744.  2745.  2743.  2744.  2744.
  2749.  2750.  2751.  2754.  2754.  2752.  2754.  2754.  2761.  2759.
  2759.  2767.  2767.  2771.  2770.  2775.  2778.  2778.  2777.  2783.
  2782.  2786.  2785.  2784.  2783.  2782.  2782.  2783.  2777.  2776.
  2766.  2765.  2757.  2748.  2751.  2742.  2735.  2730.  2719.  2715.
  2707.  2704.  2696.  2693.  2692.  2690.  2687.  2679.  2679.  2681.
  2683.  2677.  2677.  2682.  2683.  2682.  2684.  2686.  2689.  2688.
  2698.  2695.  2696.  2703.  2708.  2709.  2716.  2720.  2723.  2733.
  2734.  2738.  2743.  2748.  2754.  2761.  2767.  2768.  2775.  2780.
  2789.  2787.  2795.  2800.  2802.  2804.  2809.  2807.  2814.  2820.
  2823.  2823.  2828.  2831.  2834.  2838.  2841.  2848.  2850.  2857.
  2861.  2863.  2868.  2871.  2873.  2875.  2880.  2883.  2885.  2887.
  2889.  2892.  2895.  2892.  2896.  2893.  2891.  2892.  2889.  2888.
  2884.  2877.  2877.  2870.  2867.  2860.  2853.  2847.  2837.  2832.
  2825.  2814.  2811.  2798.  2792.  2792.  2779.  2777.  2774.  2765.
  2762.  2756.  2755.  2750.  2752.  2747.  2744.  2741.  2740.  2734.]","3x - 3 = 6","0","space","NA","NA","space","2806","NA","NA","2806","LinregressResult(slope=1.3090879723518893, intercept=2257.9394629258518, rvalue=0.93423225467098892, pvalue=4.0588041889085593e-225, stderr=0.022395465364217767)","2","legacy","1.30908797235","1024","2","48000","-16","experiment","2048.0,2055.0,2062.0,2061.0,2072.0,2080.0,2078.0,2091.0,2099.0,2106.0,2114.0,2124.0,2128.0,2137.0,2147.0,2158.0,2165.0,2177.0,2186.0,2200.0,2209.0,2218.0,2229.0,2236.0,2253.0,2263.0,2266.0,2273.0,2283.0,2288.0,2300.0,2302.0,2305.0,2314.0,2313.0,2317.0,2316.0,2316.0,2318.0,2315.0,2317.0,2317.0,2322.0,2324.0,2328.0,2328.0,2327.0,2334.0,2332.0,2337.0,2335.0,2341.0,2345.0,2349.0,2352.0,2351.0,2353.0,2358.0,2361.0,2361.0,2361.0,2360.0,2364.0,2367.0,2368.0,2374.0,2370.0,2372.0,2373.0,2378.0,2380.0,2380.0,2380.0,2380.0,2376.0,2376.0,2380.0,2377.0,2377.0,2371.0,2373.0,2369.0,2368.0,2369.0,2367.0,2362.0,2359.0,2359.0,2362.0,2363.0,2363.0,2363.0,2362.0,2365.0,2367.0,2364.0,2369.0,2377.0,2378.0,2381.0,2382.0,2383.0,2389.0,2391.0,2398.0,2402.0,2410.0,2414.0,2417.0,2420.0,2424.0,2429.0,2438.0,2432.0,2437.0,2443.0,2438.0,2442.0,2438.0,2438.0,2436.0,2435.0,2438.0,2432.0,2430.0,2428.0,2428.0,2426.0,2421.0,2421.0,2419.0,2422.0,2426.0,2425.0,2428.0,2427.0,2433.0,2435.0,2436.0,2442.0,2443.0,2446.0,2444.0,2445.0,2450.0,2451.0,2455.0,2452.0,2450.0,2449.0,2447.0,2451.0,2464.0,2653.0,2616.0,2474.0,2533.0,2526.0,2530.0,2803.0,2453.0,2435.0,2428.0,2418.0,2415.0,2412.0,2408.0,2400.0,2395.0,2395.0,2391.0,2384.0,2385.0,2384.0,2381.0,2381.0,2385.0,2382.0,2385.0,2385.0,2388.0,2392.0,2397.0,2401.0,2403.0,2413.0,2425.0,2429.0,2429.0,2438.0,2444.0,2457.0,2462.0,2469.0,2477.0,2487.0,2492.0,2498.0,2506.0,2516.0,2523.0,2530.0,2535.0,2545.0,2546.0,2551.0,2555.0,2561.0,2567.0,2567.0,2571.0,2574.0,2581.0,2576.0,2582.0,2581.0,2580.0,2581.0,2583.0,2580.0,2584.0,2582.0,2581.0,2586.0,2583.0,2582.0,2583.0,2582.0,2585.0,2586.0,2584.0,2583.0,2584.0,2592.0,2592.0,2592.0,2591.0,2598.0,2600.0,2602.0,2605.0,2610.0,2611.0,2618.0,2620.0,2629.0,2631.0,2635.0,2643.0,2648.0,2652.0,2658.0,2660.0,2670.0,2678.0,2679.0,2683.0,2688.0,2694.0,2703.0,2708.0,2719.0,2717.0,2725.0,2728.0,2729.0,2735.0,2736.0,2738.0,2743.0,2744.0,2752.0,2748.0,2751.0,2753.0,2754.0,2756.0,2756.0,2759.0,2758.0,2760.0,2760.0,2761.0,2762.0,2761.0,2762.0,2760.0,2758.0,2760.0,2757.0,2756.0,2755.0,2754.0,2751.0,2751.0,2749.0,2751.0,2745.0,2744.0,2742.0,2737.0,2734.0,2734.0,2734.0,2729.0,2729.0,2726.0,2726.0,2724.0,2722.0,2725.0,2723.0,2725.0,2724.0,2723.0,2723.0,2724.0,2723.0,2722.0,2726.0,2727.0,2728.0,2728.0,2727.0,2728.0,2727.0,2730.0,2729.0,2729.0,2733.0,2732.0,2736.0,2736.0,2737.0,2736.0,2742.0,2740.0,2739.0,2740.0,2741.0,2744.0,2745.0,2741.0,2743.0,2746.0,2744.0,2745.0,2743.0,2744.0,2744.0,2749.0,2750.0,2751.0,2754.0,2754.0,2752.0,2754.0,2754.0,2761.0,2759.0,2759.0,2767.0,2767.0,2771.0,2770.0,2775.0,2778.0,2778.0,2777.0,2783.0,2782.0,2786.0,2785.0,2784.0,2783.0,2782.0,2782.0,2783.0,2777.0,2776.0,2766.0,2765.0,2757.0,2748.0,2751.0,2742.0,2735.0,2730.0,2719.0,2715.0,2707.0,2704.0,2696.0,2693.0,2692.0,2690.0,2687.0,2679.0,2679.0,2681.0,2683.0,2677.0,2677.0,2682.0,2683.0,2682.0,2684.0,2686.0,2689.0,2688.0,2698.0,2695.0,2696.0,2703.0,2708.0,2709.0,2716.0,2720.0,2723.0,2733.0,2734.0,2738.0,2743.0,2748.0,2754.0,2761.0,2767.0,2768.0,2775.0,2780.0,2789.0,2787.0,2795.0,2800.0,2802.0,2804.0,2809.0,2807.0,2814.0,2820.0,2823.0,2823.0,2828.0,2831.0,2834.0,2838.0,2841.0,2848.0,2850.0,2857.0,2861.0,2863.0,2868.0,2871.0,2873.0,2875.0,2880.0,2883.0,2885.0,2887.0,2889.0,2892.0,2895.0,2892.0,2896.0,2893.0,2891.0,2892.0,2889.0,2888.0,2884.0,2877.0,2877.0,2870.0,2867.0,2860.0,2853.0,2847.0,2837.0,2832.0,2825.0,2814.0,2811.0,2798.0,2792.0,2792.0,2779.0,2777.0,2774.0,2765.0,2762.0,2756.0,2755.0,2750.0,2752.0,2747.0,2744.0,2741.0,2740.0,2734.0","2","even","NA","NA","NA","arithmetic","48412","83424","NA","45318","88425","NA","44894","NA","NA","1616","81920","NA","83425","NA","1701","NA","NA","NA","88730","NA","79695","NA","88426","NA","81566","NA","78786","NA","45318","4507","NA","NA","NA","NA","44894","79695","NA","Extended template","0","0","0","yes","1024"
"undefined","undefined","undefined","undefined","black","yes","xpyriment","legacy","legacy","0","uniform","undefined","undefined","0","4","NA","0","4","NA","0","0","0","0","4","NA","4","NA","0","0","NA","NA","4","NA","4","NA","4","NA","4","NA","4","NA","0","0","0","0","NA","NA","0","4","NA","10/18/18 13:48:04","A template containing a practice and an experimental phase","hard","yes","Experiment.osexp","C:\Users\EEGExp\Desktop","no","mono","no","18","no","white","no","Ok","yes","768","legacy","4","4","0","C:/Users/EEGExp/Desktop/subject-2.csv","xpyriment","Kafkaesque Koffka","3.2.5","yes","[ 2526.  2522.  2514.  2517.  2512.  2509.  2508.  2502.  2502.  2496.
  2492.  2490.  2483.  2484.  2481.  2478.  2477.  2474.  2473.  2472.
  2473.  2470.  2469.  2466.  2463.  2462.  2460.  2460.  2458.  2455.
  2455.  2455.  2453.  2452.  2448.  2449.  2448.  2450.  2450.  2448.
  2453.  2453.  2456.  2460.  2463.  2465.  2467.  2471.  2477.  2480.
  2475.  2478.  2480.  2484.  2477.  2480.  2477.  2480.  2480.  2477.
  2479.  2476.  2476.  2471.  2473.  2475.  2472.  2472.  2473.  2480.
  2480.  2482.  2479.  2485.  2488.  2489.  2500.  2495.  2503.  2504.
  2507.  2510.  2519.  2524.  2534.  2540.  2545.  2547.  2552.  2558.
  2566.  2570.  2576.  2581.  2584.  2589.  2595.  2601.  2604.  2607.
  2613.  2623.  2628.  2634.  2634.  2642.  2651.  2660.  2667.  2672.
  2683.  2690.  2702.  2707.  2717.  2721.  2728.  2740.  2749.  2754.
  2764.  2775.  2783.  2792.  2795.  2808.  2816.  2822.  2829.  2833.
  2836.  2843.  2848.  2853.  2856.  2859.  2863.  2866.  2864.  2870.
  2871.  2871.  2875.  2875.  2878.  2881.  2884.  2883.  2886.  2889.
  2889.  2890.  2892.  2895.  2895.  2894.  2897.  2895.  2900.  2900.
  2900.  2900.  2906.  2904.  2906.  2907.  2911.  2911.  2913.  2916.
  2918.  2922.  2927.  2925.  2930.  2931.  2933.  2933.  2938.  2942.
  2945.  2950.  2955.  2955.  2960.  2963.  2964.  2967.  2971.  2977.
  2984.  2985.  2988.  2992.  2994.  2996.  2997.  3001.  2999.  3004.
  3006.  3007.  3007.  3010.  3008.  3008.  3007.  3003.  3002.  3000.
  3000.  2997.  2994.  2989.  2985.  2981.  2977.  2979.  2974.  2971.
  2972.  2971.  2969.  2963.  2962.  2959.  2961.  2955.  2955.  2951.
  2948.  2946.  2943.  2945.  2939.  2941.  2937.  2937.  2942.  2940.
  2942.  2942.  2942.  2942.  2947.  2949.  2943.  2955.  2954.  2957.
  2966.  2964.  2969.  2973.  2975.  2980.  2984.  2984.  2990.  2992.
  2997.  2996.  2996.  3000.  3000.  2998.  2997.  2999.  2998.  2996.
  2996.  2991.  2990.  2986.  2983.  2980.  2982.  2975.  2973.  2972.
  2964.  2967.  2961.  2963.  2962.  2962.  2960.  2955.  2950.  2947.
  2945.  2949.  2948.  2947.  2944.  2944.  2945.  2945.  2945.  2943.
  2943.  2943.  2945.  2949.  2947.  2957.  2954.  2960.  2959.  2964.
  2968.  2977.  2985.  2986.  2991.  2999.  3011.  3019.  3024.  3030.
  3034.  3041.  3047.  3051.  3056.  3063.  3064.  3068.  3069.  3069.
  3072.  3078.  3074.  3072.  3070.  3067.  3062.  3059.  3054.  3045.
  3037.  3028.  3021.  3015.  3009.  2997.  2990.  2982.  2975.  2967.
  2959.  2952.  2946.  2934.  2927.  2923.  2915.  2913.  2905.  2908.
  2902.  2894.  2893.  2893.  2888.  2891.  2891.  2884.  2891.  2892.
  2894.  2898.  2899.  2906.  2908.  2914.  2915.  2922.  2924.  2935.
  2939.  2947.  2950.  2959.  2969.  2969.  2985.  2991.  3001.  3011.
  3013.  3021.  3030.  3035.  3047.  3053.  3061.  3067.  3074.  3076.
  3081.  3086.  3090.  3095.  3101.  3099.  3103.  3103.  3109.  3110.
  3109.  3111.  3114.  3118.  3118.  3119.  3118.  3119.  3122.  3118.
  3117.  3117.  3116.  3110.  3107.  3100.  3090.  3083.  3074.  3060.
  3053.  3038.  3025.  3008.  2996.  2987.  2971.  2956.  2945.  2929.
  2921.  2907.  2892.  2884.  2874.  2863.  2850.  2848.  2839.  2835.
  2828.  2825.  2816.  2814.  2812.  2807.  2807.  2804.  2803.  2806.
  2801.  2800.  2805.  2808.  2810.  2810.  2815.  2818.  2820.  2824.
  2830.  2835.  2837.  2840.  2845.  2848.  2853.  2861.  2859.  2864.
  2865.  2869.  2870.  2873.  2871.  2871.  2873.  2867.  2869.  2860.
  2858.  2851.  2841.  2840.  2834.  2825.  2814.  2809.  2797.  2790.]","7x - 3 = 18","0","space","NA","NA","space","2806","NA","NA","2806","LinregressResult(slope=0.96421590486361941, intercept=2606.2499158316632, rvalue=0.69927335852047479, pvalue=1.2820658715474934e-74, stderr=0.04417028621683327)","2","legacy","0.964215904864","1024","2","48000","-16","experiment","2526.0,2522.0,2514.0,2517.0,2512.0,2509.0,2508.0,2502.0,2502.0,2496.0,2492.0,2490.0,2483.0,2484.0,2481.0,2478.0,2477.0,2474.0,2473.0,2472.0,2473.0,2470.0,2469.0,2466.0,2463.0,2462.0,2460.0,2460.0,2458.0,2455.0,2455.0,2455.0,2453.0,2452.0,2448.0,2449.0,2448.0,2450.0,2450.0,2448.0,2453.0,2453.0,2456.0,2460.0,2463.0,2465.0,2467.0,2471.0,2477.0,2480.0,2475.0,2478.0,2480.0,2484.0,2477.0,2480.0,2477.0,2480.0,2480.0,2477.0,2479.0,2476.0,2476.0,2471.0,2473.0,2475.0,2472.0,2472.0,2473.0,2480.0,2480.0,2482.0,2479.0,2485.0,2488.0,2489.0,2500.0,2495.0,2503.0,2504.0,2507.0,2510.0,2519.0,2524.0,2534.0,2540.0,2545.0,2547.0,2552.0,2558.0,2566.0,2570.0,2576.0,2581.0,2584.0,2589.0,2595.0,2601.0,2604.0,2607.0,2613.0,2623.0,2628.0,2634.0,2634.0,2642.0,2651.0,2660.0,2667.0,2672.0,2683.0,2690.0,2702.0,2707.0,2717.0,2721.0,2728.0,2740.0,2749.0,2754.0,2764.0,2775.0,2783.0,2792.0,2795.0,2808.0,2816.0,2822.0,2829.0,2833.0,2836.0,2843.0,2848.0,2853.0,2856.0,2859.0,2863.0,2866.0,2864.0,2870.0,2871.0,2871.0,2875.0,2875.0,2878.0,2881.0,2884.0,2883.0,2886.0,2889.0,2889.0,2890.0,2892.0,2895.0,2895.0,2894.0,2897.0,2895.0,2900.0,2900.0,2900.0,2900.0,2906.0,2904.0,2906.0,2907.0,2911.0,2911.0,2913.0,2916.0,2918.0,2922.0,2927.0,2925.0,2930.0,2931.0,2933.0,2933.0,2938.0,2942.0,2945.0,2950.0,2955.0,2955.0,2960.0,2963.0,2964.0,2967.0,2971.0,2977.0,2984.0,2985.0,2988.0,2992.0,2994.0,2996.0,2997.0,3001.0,2999.0,3004.0,3006.0,3007.0,3007.0,3010.0,3008.0,3008.0,3007.0,3003.0,3002.0,3000.0,3000.0,2997.0,2994.0,2989.0,2985.0,2981.0,2977.0,2979.0,2974.0,2971.0,2972.0,2971.0,2969.0,2963.0,2962.0,2959.0,2961.0,2955.0,2955.0,2951.0,2948.0,2946.0,2943.0,2945.0,2939.0,2941.0,2937.0,2937.0,2942.0,2940.0,2942.0,2942.0,2942.0,2942.0,2947.0,2949.0,2943.0,2955.0,2954.0,2957.0,2966.0,2964.0,2969.0,2973.0,2975.0,2980.0,2984.0,2984.0,2990.0,2992.0,2997.0,2996.0,2996.0,3000.0,3000.0,2998.0,2997.0,2999.0,2998.0,2996.0,2996.0,2991.0,2990.0,2986.0,2983.0,2980.0,2982.0,2975.0,2973.0,2972.0,2964.0,2967.0,2961.0,2963.0,2962.0,2962.0,2960.0,2955.0,2950.0,2947.0,2945.0,2949.0,2948.0,2947.0,2944.0,2944.0,2945.0,2945.0,2945.0,2943.0,2943.0,2943.0,2945.0,2949.0,2947.0,2957.0,2954.0,2960.0,2959.0,2964.0,2968.0,2977.0,2985.0,2986.0,2991.0,2999.0,3011.0,3019.0,3024.0,3030.0,3034.0,3041.0,3047.0,3051.0,3056.0,3063.0,3064.0,3068.0,3069.0,3069.0,3072.0,3078.0,3074.0,3072.0,3070.0,3067.0,3062.0,3059.0,3054.0,3045.0,3037.0,3028.0,3021.0,3015.0,3009.0,2997.0,2990.0,2982.0,2975.0,2967.0,2959.0,2952.0,2946.0,2934.0,2927.0,2923.0,2915.0,2913.0,2905.0,2908.0,2902.0,2894.0,2893.0,2893.0,2888.0,2891.0,2891.0,2884.0,2891.0,2892.0,2894.0,2898.0,2899.0,2906.0,2908.0,2914.0,2915.0,2922.0,2924.0,2935.0,2939.0,2947.0,2950.0,2959.0,2969.0,2969.0,2985.0,2991.0,3001.0,3011.0,3013.0,3021.0,3030.0,3035.0,3047.0,3053.0,3061.0,3067.0,3074.0,3076.0,3081.0,3086.0,3090.0,3095.0,3101.0,3099.0,3103.0,3103.0,3109.0,3110.0,3109.0,3111.0,3114.0,3118.0,3118.0,3119.0,3118.0,3119.0,3122.0,3118.0,3117.0,3117.0,3116.0,3110.0,3107.0,3100.0,3090.0,3083.0,3074.0,3060.0,3053.0,3038.0,3025.0,3008.0,2996.0,2987.0,2971.0,2956.0,2945.0,2929.0,2921.0,2907.0,2892.0,2884.0,2874.0,2863.0,2850.0,2848.0,2839.0,2835.0,2828.0,2825.0,2816.0,2814.0,2812.0,2807.0,2807.0,2804.0,2803.0,2806.0,2801.0,2800.0,2805.0,2808.0,2810.0,2810.0,2815.0,2818.0,2820.0,2824.0,2830.0,2835.0,2837.0,2840.0,2845.0,2848.0,2853.0,2861.0,2859.0,2864.0,2865.0,2869.0,2870.0,2873.0,2871.0,2871.0,2873.0,2867.0,2869.0,2860.0,2858.0,2851.0,2841.0,2840.0,2834.0,2825.0,2814.0,2809.0,2797.0,2790.0","2","even","NA","NA","NA","arithmetic","48412","93216","NA","45318","98218","NA","44894","NA","NA","1616","91713","NA","93218","NA","1701","NA","NA","NA","98523","NA","89667","NA","98219","NA","91358","NA","88748","NA","45318","4507","NA","NA","NA","NA","44894","89667","NA","Extended template","0","0","0","yes","1024"
"undefined","undefined","undefined","undefined","black","yes","xpyriment","legacy","legacy","0","uniform","undefined","undefined","0","5","NA","0","5","NA","0","0","0","0","5","NA","5","NA","0","0","NA","NA","5","NA","5","NA","5","NA","5","NA","5","NA","0","0","0","0","NA","NA","0","5","NA","10/18/18 13:48:04","A template containing a practice and an experimental phase","medium","yes","Experiment.osexp","C:\Users\EEGExp\Desktop","no","mono","no","18","no","white","no","Ok","yes","768","legacy","5","5","0","C:/Users/EEGExp/Desktop/subject-2.csv","xpyriment","Kafkaesque Koffka","3.2.5","yes","[ 2819.  2819.  2820.  2824.  2822.  2822.  2819.  2824.  2821.  2818.
  2820.  2818.  2820.  2820.  2819.  2818.  2815.  2819.  2818.  2819.
  2816.  2815.  2816.  2816.  2814.  2817.  2818.  2819.  2814.  2817.
  2816.  2811.  2812.  2813.  2812.  2813.  2815.  2816.  2816.  2817.
  2816.  2817.  2815.  2818.  2817.  2817.  2819.  2817.  2823.  2823.
  2822.  2822.  2824.  2828.  2826.  2827.  2832.  2837.  2836.  2839.
  2841.  2837.  2842.  2844.  2849.  2846.  2856.  2856.  2862.  2864.
  2865.  2872.  2870.  2877.  2878.  2884.  2887.  2894.  2898.  2905.
  2912.  2914.  2920.  2921.  2923.  2929.  2933.  2938.  2939.  2939.
  2945.  2945.  2944.  2950.  2951.  2952.  2952.  2953.  2958.  2961.
  2963.  2963.  2967.  2966.  2965.  2967.  2969.  2973.  2972.  2971.
  2975.  2979.  2978.  2980.  2984.  2980.  2983.  2983.  2986.  2987.
  2989.  2987.  2988.  2987.  2991.  2992.  2989.  2989.  2992.  2990.
  2988.  2991.  2990.  2995.  2992.  2993.  2989.  2993.  2993.  2993.
  2994.  2997.  3001.  2999.  2999.  3001.  3005.  3006.  3006.  3013.
  3013.  3017.  3016.  3019.  3019.  3022.  3027.  3030.  3029.  3032.
  3034.  3033.  3038.  3041.  3042.  3041.  3048.  3049.  3046.  3049.
  3055.  3058.  3061.  3060.  3065.  3063.  3065.  3066.  3068.  3065.
  3066.  3061.  3059.  3063.  3056.  3048.  3057.  3044.  3042.  3042.
  3037.  3033.  3028.  3026.  3024.  3026.  3021.  3018.  3017.  3010.
  3009.  3006.  3004.  3000.  2996.  2994.  2995.  2997.  2993.  2994.
  2994.  2993.  2994.  2996.  2999.  3000.  3000.  3003.  3004.  3005.
  3006.  3009.  3012.  3014.  3012.  3016.  3016.  3013.  3016.  3015.
  3016.  3016.  3011.  3012.  3010.  3014.  3012.  3011.  3009.  3013.
  3005.  3003.  3005.  3003.  3001.  2996.  2994.  2992.  2989.  2984.
  2982.  2978.  2979.  2972.  2973.  2968.  2965.  2965.  2965.  2962.
  2961.  2959.  2959.  2962.  2961.  2962.  2966.  2962.  2968.  2968.
  2969.  2971.  2971.  2974.  2976.  2979.  2979.  2981.  2983.  2982.
  2989.  2990.  2994.  2993.  2998.  2999.  3001.  3002.  3006.  3007.
  3011.  3012.  3017.  3017.  3021.  3023.  3025.  3030.  3031.  3030.
  3032.  3028.  3034.  3031.  3028.  3026.  3025.  3025.  3021.  3018.
  3016.  3014.  3004.  2999.  2995.  2988.  2987.  2980.  2970.  2967.
  2957.  2950.  2944.  2932.  2927.  2922.  2922.  2912.  2909.  2900.
  2900.  2896.  2892.  2893.  2888.  2887.  2890.  2886.  2891.  2888.
  2890.  2891.  2893.  2896.  2898.  2901.  2906.  2906.  2911.  2914.
  2916.  2919.  2925.  2926.  2929.  2934.  2941.  2944.  2948.  2952.
  2958.  2959.  2964.  2966.  2974.  2980.  2980.  2984.  2991.  2991.
  2995.  3002.  3009.  3009.  3012.  3016.  3025.  3023.  3033.  3036.
  3039.  3041.  3050.  3054.  3059.  3063.  3061.  3065.  3073.  3075.
  3078.  3079.  3081.  3080.  3081.  3085.  3080.  3081.  3077.  3073.
  3072.  3067.  3063.  3052.  3045.  3034.  3033.  3022.  3006.  3003.
  2999.  2992.  2977.  2968.  2961.  2952.  2945.  2934.  2934.  2926.
  2924.  2912.  2907.  2909.  2905.  2901.  2903.  2904.  2900.  2897.
  2901.  2903.  2911.  2914.  2918.  2922.  2927.  2928.  2936.  2941.
  2945.  2948.  2950.  2961.  2972.  2970.  2979.  2982.  2989.  2998.
  3006.  3009.  3013.  3021.  3032.  3036.  3043.  3054.  3053.  3058.
  3064.  3063.  3075.  3077.  3085.  3086.  3092.  3096.  3100.  3105.
  3112.  3114.  3115.  3116.  3113.  3113.  3111.  3111.  3106.  3099.
  3099.  3093.  3088.  3081.  3078.  3068.  3060.  3057.  3048.  3042.
  3034.  3028.  3023.  3014.  3009.  3002.  2991.  2988.  2978.  2978.]","3x = 15","0","space","NA","NA","space","2806","NA","NA","2806","LinregressResult(slope=0.30512464449857796, intercept=2893.8142765531061, rvalue=0.56573262926950185, pvalue=1.2158934743021791e-43, stderr=0.019929150547860514)","2","legacy","0.305124644499","1024","2","48000","-16","experiment","2819.0,2819.0,2820.0,2824.0,2822.0,2822.0,2819.0,2824.0,2821.0,2818.0,2820.0,2818.0,2820.0,2820.0,2819.0,2818.0,2815.0,2819.0,2818.0,2819.0,2816.0,2815.0,2816.0,2816.0,2814.0,2817.0,2818.0,2819.0,2814.0,2817.0,2816.0,2811.0,2812.0,2813.0,2812.0,2813.0,2815.0,2816.0,2816.0,2817.0,2816.0,2817.0,2815.0,2818.0,2817.0,2817.0,2819.0,2817.0,2823.0,2823.0,2822.0,2822.0,2824.0,2828.0,2826.0,2827.0,2832.0,2837.0,2836.0,2839.0,2841.0,2837.0,2842.0,2844.0,2849.0,2846.0,2856.0,2856.0,2862.0,2864.0,2865.0,2872.0,2870.0,2877.0,2878.0,2884.0,2887.0,2894.0,2898.0,2905.0,2912.0,2914.0,2920.0,2921.0,2923.0,2929.0,2933.0,2938.0,2939.0,2939.0,2945.0,2945.0,2944.0,2950.0,2951.0,2952.0,2952.0,2953.0,2958.0,2961.0,2963.0,2963.0,2967.0,2966.0,2965.0,2967.0,2969.0,2973.0,2972.0,2971.0,2975.0,2979.0,2978.0,2980.0,2984.0,2980.0,2983.0,2983.0,2986.0,2987.0,2989.0,2987.0,2988.0,2987.0,2991.0,2992.0,2989.0,2989.0,2992.0,2990.0,2988.0,2991.0,2990.0,2995.0,2992.0,2993.0,2989.0,2993.0,2993.0,2993.0,2994.0,2997.0,3001.0,2999.0,2999.0,3001.0,3005.0,3006.0,3006.0,3013.0,3013.0,3017.0,3016.0,3019.0,3019.0,3022.0,3027.0,3030.0,3029.0,3032.0,3034.0,3033.0,3038.0,3041.0,3042.0,3041.0,3048.0,3049.0,3046.0,3049.0,3055.0,3058.0,3061.0,3060.0,3065.0,3063.0,3065.0,3066.0,3068.0,3065.0,3066.0,3061.0,3059.0,3063.0,3056.0,3048.0,3057.0,3044.0,3042.0,3042.0,3037.0,3033.0,3028.0,3026.0,3024.0,3026.0,3021.0,3018.0,3017.0,3010.0,3009.0,3006.0,3004.0,3000.0,2996.0,2994.0,2995.0,2997.0,2993.0,2994.0,2994.0,2993.0,2994.0,2996.0,2999.0,3000.0,3000.0,3003.0,3004.0,3005.0,3006.0,3009.0,3012.0,3014.0,3012.0,3016.0,3016.0,3013.0,3016.0,3015.0,3016.0,3016.0,3011.0,3012.0,3010.0,3014.0,3012.0,3011.0,3009.0,3013.0,3005.0,3003.0,3005.0,3003.0,3001.0,2996.0,2994.0,2992.0,2989.0,2984.0,2982.0,2978.0,2979.0,2972.0,2973.0,2968.0,2965.0,2965.0,2965.0,2962.0,2961.0,2959.0,2959.0,2962.0,2961.0,2962.0,2966.0,2962.0,2968.0,2968.0,2969.0,2971.0,2971.0,2974.0,2976.0,2979.0,2979.0,2981.0,2983.0,2982.0,2989.0,2990.0,2994.0,2993.0,2998.0,2999.0,3001.0,3002.0,3006.0,3007.0,3011.0,3012.0,3017.0,3017.0,3021.0,3023.0,3025.0,3030.0,3031.0,3030.0,3032.0,3028.0,3034.0,3031.0,3028.0,3026.0,3025.0,3025.0,3021.0,3018.0,3016.0,3014.0,3004.0,2999.0,2995.0,2988.0,2987.0,2980.0,2970.0,2967.0,2957.0,2950.0,2944.0,2932.0,2927.0,2922.0,2922.0,2912.0,2909.0,2900.0,2900.0,2896.0,2892.0,2893.0,2888.0,2887.0,2890.0,2886.0,2891.0,2888.0,2890.0,2891.0,2893.0,2896.0,2898.0,2901.0,2906.0,2906.0,2911.0,2914.0,2916.0,2919.0,2925.0,2926.0,2929.0,2934.0,2941.0,2944.0,2948.0,2952.0,2958.0,2959.0,2964.0,2966.0,2974.0,2980.0,2980.0,2984.0,2991.0,2991.0,2995.0,3002.0,3009.0,3009.0,3012.0,3016.0,3025.0,3023.0,3033.0,3036.0,3039.0,3041.0,3050.0,3054.0,3059.0,3063.0,3061.0,3065.0,3073.0,3075.0,3078.0,3079.0,3081.0,3080.0,3081.0,3085.0,3080.0,3081.0,3077.0,3073.0,3072.0,3067.0,3063.0,3052.0,3045.0,3034.0,3033.0,3022.0,3006.0,3003.0,2999.0,2992.0,2977.0,2968.0,2961.0,2952.0,2945.0,2934.0,2934.0,2926.0,2924.0,2912.0,2907.0,2909.0,2905.0,2901.0,2903.0,2904.0,2900.0,2897.0,2901.0,2903.0,2911.0,2914.0,2918.0,2922.0,2927.0,2928.0,2936.0,2941.0,2945.0,2948.0,2950.0,2961.0,2972.0,2970.0,2979.0,2982.0,2989.0,2998.0,3006.0,3009.0,3013.0,3021.0,3032.0,3036.0,3043.0,3054.0,3053.0,3058.0,3064.0,3063.0,3075.0,3077.0,3085.0,3086.0,3092.0,3096.0,3100.0,3105.0,3112.0,3114.0,3115.0,3116.0,3113.0,3113.0,3111.0,3111.0,3106.0,3099.0,3099.0,3093.0,3088.0,3081.0,3078.0,3068.0,3060.0,3057.0,3048.0,3042.0,3034.0,3028.0,3023.0,3014.0,3009.0,3002.0,2991.0,2988.0,2978.0,2978.0","2","even","NA","NA","NA","arithmetic","48412","102280","NA","45318","107282","NA","44894","NA","NA","1616","100777","NA","102282","NA","1701","NA","NA","NA","107587","NA","99424","NA","107283","NA","100424","NA","98549","NA","45318","4507","NA","NA","NA","NA","44894","99423","NA","Extended template","0","0","0","yes","1024"
"undefined","undefined","undefined","undefined","black","yes","xpyriment","legacy","legacy","0","uniform","undefined","undefined","0","6","NA","0","6","NA","0","0","0","0","6","NA","6","NA","0","0","NA","NA","6","NA","6","NA","6","NA","6","NA","6","NA","0","0","0","0","NA","NA","0","6","NA","10/18/18 13:48:04","A template containing a practice and an experimental phase","easy","yes","Experiment.osexp","C:\Users\EEGExp\Desktop","no","mono","no","18","no","white","no","Ok","yes","768","legacy","6","6","0","C:/Users/EEGExp/Desktop/subject-2.csv","xpyriment","Kafkaesque Koffka","3.2.5","yes","[ 2839.  2836.  2832.  2834.  2834.  2833.  2833.  2838.  2838.  2839.
  2841.  2838.  2843.  2846.  2847.  2847.  2851.  2854.  2857.  2861.
  2862.  2873.  2874.  2874.  2881.  2887.  2888.  2896.  2898.  2907.
  2915.  2915.  2921.  2925.  2931.  2934.  2941.  2947.  2950.  2954.
  2962.  2966.  2973.  2977.  2984.  2984.  2985.  2989.  2993.  2993.
  2997.  3004.  3007.  3004.  3008.  3007.  3002.  3009.  3008.  2998.
  3003.  2998.  2994.  2989.  2988.  2985.  2980.  2976.  2971.  2968.
  2961.  2950.  2955.  2951.  2951.  2945.  2939.  2936.  2934.  2935.
  2930.  2927.  2924.  2919.  2919.  2923.  2921.  2917.  2918.  2916.
  2916.  2916.  2916.  2917.  2911.  2913.  2913.  2912.  2911.  2911.
  2913.  2917.  2911.  2913.  2910.  2910.  2909.  2908.  2905.  2900.
  2898.  2895.  2888.  2888.  2880.  2878.  2874.  2870.  2864.  2856.
  2854.  2848.  2849.  2847.  2840.  2841.  2835.  2833.  2832.  2827.
  2825.  2824.  2820.  2819.  2812.  2810.  2802.  2799.  2799.  2794.
  2791.  2789.  2788.  2784.  2778.  2777.  2769.  2764.  2755.  2747.
  2740.  2734.  2731.  2726.  2716.  2707.  2705.  2700.  2696.  2691.
  2691.  2683.  2681.  2682.  2677.  2677.  2672.  2670.  2677.  2678.
  2671.  2671.  2671.  2667.  2667.  2664.  2663.  2662.  2658.  2656.
  2653.  2647.  2651.  2640.  2643.  2640.  2642.  2642.  2640.  2643.
  2641.  2642.  2642.  2646.  2644.  2646.  2648.  2652.  2652.  2656.
  2660.  2669.  2677.  2681.  2686.  2690.  2701.  2699.  2705.  2714.
  2722.  2723.  2726.  2731.  2732.  2734.  2732.  2737.  2736.  2739.
  2737.  2737.  2734.  2735.  2734.  2734.  2734.  2734.  2735.  2734.
  2735.  2733.  2730.  2730.  2730.  2731.  2724.  2722.  2721.  2718.
  2718.  2712.  2708.  2697.  2697.  2687.  2685.  2678.  2669.  2669.
  2661.  2658.  2657.  2650.  2647.  2642.  2641.  2637.  2634.  2635.
  2632.  2627.  2629.  2627.  2621.  2622.  2624.  2623.  2625.  2624.
  2626.  2630.  2629.  2629.  2628.  2631.  2630.  2636.  2635.  2633.
  2632.  2629.  2630.  2629.  2625.  2626.  2626.  2622.  2621.  2620.
  2619.  2615.  2610.  2616.  2615.  2613.  2614.  2613.  2614.  2615.
  2614.  2616.  2618.  2618.  2616.  2614.  2618.  2621.  2622.  2627.
  2624.  2628.  2631.  2634.  2637.  2635.  2643.  2648.  2648.  2655.
  2654.  2659.  2663.  2666.  2662.  2672.  2669.  2668.  2671.  2670.
  2670.  2670.  2671.  2670.  2666.  2667.  2666.  2666.  2666.  2666.
  2657.  2663.  2662.  2657.  2656.  2653.  2653.  2656.  2649.  2643.
  2634.  2633.  2625.  2624.  2621.  2616.  2610.  2604.  2600.  2597.
  2592.  2587.  2580.  2580.  2573.  2573.  2570.  2563.  2560.  2555.
  2550.  2548.  2548.  2545.  2545.  2543.  2540.  2543.  2533.  2533.
  2534.  2535.  2540.  2541.  2544.  2547.  2548.  2551.  2552.  2556.
  2558.  2558.  2564.  2564.  2567.  2565.  2570.  2573.  2573.  2574.
  2576.  2579.  2580.  2581.  2585.  2593.  2591.  2595.  2597.  2598.
  2602.  2606.  2609.  2612.  2612.  2615.  2616.  2621.  2624.  2623.
  2626.  2628.  2632.  2634.  2639.  2639.  2644.  2645.  2647.  2649.
  2649.  2650.  2653.  2652.  2657.  2659.  2657.  2659.  2661.  2662.
  2665.  2669.  2669.  2670.  2677.  2681.  2688.  2696.  2702.  2706.
  2715.  2720.  2732.  2741.  2745.  2752.  2761.  2770.  2782.  2794.
  2799.  2803.  2818.  2823.  2836.  2845.  2856.  2863.  2869.  2881.
  2896.  2900.  2912.  2924.  2932.  2946.  2951.  2963.  2969.  2981.
  2987.  2999.  3001.  3013.  3019.  3027.  3034.  3043.  3048.  3057.
  3060.  3066.  3077.  3081.  3090.  3093.  3101.  3102.  3110.  3107.]","6 + 2","0","space","NA","NA","space","2806","NA","NA","2806","LinregressResult(slope=-0.40955539822159293, intercept=2851.3536272545093, rvalue=-0.41018505802245325, pvalue=1.0325532246413491e-21, stderr=0.04080506619454892)","2","legacy","-0.409555398222","1024","2","48000","-16","experiment","2839.0,2836.0,2832.0,2834.0,2834.0,2833.0,2833.0,2838.0,2838.0,2839.0,2841.0,2838.0,2843.0,2846.0,2847.0,2847.0,2851.0,2854.0,2857.0,2861.0,2862.0,2873.0,2874.0,2874.0,2881.0,2887.0,2888.0,2896.0,2898.0,2907.0,2915.0,2915.0,2921.0,2925.0,2931.0,2934.0,2941.0,2947.0,2950.0,2954.0,2962.0,2966.0,2973.0,2977.0,2984.0,2984.0,2985.0,2989.0,2993.0,2993.0,2997.0,3004.0,3007.0,3004.0,3008.0,3007.0,3002.0,3009.0,3008.0,2998.0,3003.0,2998.0,2994.0,2989.0,2988.0,2985.0,2980.0,2976.0,2971.0,2968.0,2961.0,2950.0,2955.0,2951.0,2951.0,2945.0,2939.0,2936.0,2934.0,2935.0,2930.0,2927.0,2924.0,2919.0,2919.0,2923.0,2921.0,2917.0,2918.0,2916.0,2916.0,2916.0,2916.0,2917.0,2911.0,2913.0,2913.0,2912.0,2911.0,2911.0,2913.0,2917.0,2911.0,2913.0,2910.0,2910.0,2909.0,2908.0,2905.0,2900.0,2898.0,2895.0,2888.0,2888.0,2880.0,2878.0,2874.0,2870.0,2864.0,2856.0,2854.0,2848.0,2849.0,2847.0,2840.0,2841.0,2835.0,2833.0,2832.0,2827.0,2825.0,2824.0,2820.0,2819.0,2812.0,2810.0,2802.0,2799.0,2799.0,2794.0,2791.0,2789.0,2788.0,2784.0,2778.0,2777.0,2769.0,2764.0,2755.0,2747.0,2740.0,2734.0,2731.0,2726.0,2716.0,2707.0,2705.0,2700.0,2696.0,2691.0,2691.0,2683.0,2681.0,2682.0,2677.0,2677.0,2672.0,2670.0,2677.0,2678.0,2671.0,2671.0,2671.0,2667.0,2667.0,2664.0,2663.0,2662.0,2658.0,2656.0,2653.0,2647.0,2651.0,2640.0,2643.0,2640.0,2642.0,2642.0,2640.0,2643.0,2641.0,2642.0,2642.0,2646.0,2644.0,2646.0,2648.0,2652.0,2652.0,2656.0,2660.0,2669.0,2677.0,2681.0,2686.0,2690.0,2701.0,2699.0,2705.0,2714.0,2722.0,2723.0,2726.0,2731.0,2732.0,2734.0,2732.0,2737.0,2736.0,2739.0,2737.0,2737.0,2734.0,2735.0,2734.0,2734.0,2734.0,2734.0,2735.0,2734.0,2735.0,2733.0,2730.0,2730.0,2730.0,2731.0,2724.0,2722.0,2721.0,2718.0,2718.0,2712.0,2708.0,2697.0,2697.0,2687.0,2685.0,2678.0,2669.0,2669.0,2661.0,2658.0,2657.0,2650.0,2647.0,2642.0,2641.0,2637.0,2634.0,2635.0,2632.0,2627.0,2629.0,2627.0,2621.0,2622.0,2624.0,2623.0,2625.0,2624.0,2626.0,2630.0,2629.0,2629.0,2628.0,2631.0,2630.0,2636.0,2635.0,2633.0,2632.0,2629.0,2630.0,2629.0,2625.0,2626.0,2626.0,2622.0,2621.0,2620.0,2619.0,2615.0,2610.0,2616.0,2615.0,2613.0,2614.0,2613.0,2614.0,2615.0,2614.0,2616.0,2618.0,2618.0,2616.0,2614.0,2618.0,2621.0,2622.0,2627.0,2624.0,2628.0,2631.0,2634.0,2637.0,2635.0,2643.0,2648.0,2648.0,2655.0,2654.0,2659.0,2663.0,2666.0,2662.0,2672.0,2669.0,2668.0,2671.0,2670.0,2670.0,2670.0,2671.0,2670.0,2666.0,2667.0,2666.0,2666.0,2666.0,2666.0,2657.0,2663.0,2662.0,2657.0,2656.0,2653.0,2653.0,2656.0,2649.0,2643.0,2634.0,2633.0,2625.0,2624.0,2621.0,2616.0,2610.0,2604.0,2600.0,2597.0,2592.0,2587.0,2580.0,2580.0,2573.0,2573.0,2570.0,2563.0,2560.0,2555.0,2550.0,2548.0,2548.0,2545.0,2545.0,2543.0,2540.0,2543.0,2533.0,2533.0,2534.0,2535.0,2540.0,2541.0,2544.0,2547.0,2548.0,2551.0,2552.0,2556.0,2558.0,2558.0,2564.0,2564.0,2567.0,2565.0,2570.0,2573.0,2573.0,2574.0,2576.0,2579.0,2580.0,2581.0,2585.0,2593.0,2591.0,2595.0,2597.0,2598.0,2602.0,2606.0,2609.0,2612.0,2612.0,2615.0,2616.0,2621.0,2624.0,2623.0,2626.0,2628.0,2632.0,2634.0,2639.0,2639.0,2644.0,2645.0,2647.0,2649.0,2649.0,2650.0,2653.0,2652.0,2657.0,2659.0,2657.0,2659.0,2661.0,2662.0,2665.0,2669.0,2669.0,2670.0,2677.0,2681.0,2688.0,2696.0,2702.0,2706.0,2715.0,2720.0,2732.0,2741.0,2745.0,2752.0,2761.0,2770.0,2782.0,2794.0,2799.0,2803.0,2818.0,2823.0,2836.0,2845.0,2856.0,2863.0,2869.0,2881.0,2896.0,2900.0,2912.0,2924.0,2932.0,2946.0,2951.0,2963.0,2969.0,2981.0,2987.0,2999.0,3001.0,3013.0,3019.0,3027.0,3034.0,3043.0,3048.0,3057.0,3060.0,3066.0,3077.0,3081.0,3090.0,3093.0,3101.0,3102.0,3110.0,3107.0","2","even","NA","NA","NA","arithmetic","48412","112119","NA","45318","117120","NA","44894","NA","NA","1616","110614","NA","112120","NA","1701","NA","NA","NA","117425","NA","108478","NA","117121","NA","110260","NA","107604","NA","45318","4507","NA","NA","NA","NA","44894","108478","NA","Extended template","0","0","0","yes","1024"
"undefined","undefined","undefined","undefined","black","yes","xpyriment","legacy","legacy","0","uniform","undefined","undefined","0","7","NA","0","7","NA","0","0","0","0","7","NA","7","NA","0","0","NA","NA","7","NA","7","NA","7","NA","7","NA","7","NA","0","0","0","0","NA","NA","0","7","NA","10/18/18 13:48:04","A template containing a practice and an experimental phase","easy","yes","Experiment.osexp","C:\Users\EEGExp\Desktop","no","mono","no","18","no","white","no","Ok","yes","768","legacy","7","7","0","C:/Users/EEGExp/Desktop/subject-2.csv","xpyriment","Kafkaesque Koffka","3.2.5","yes","[ 2507.  2508.  2507.  2504.  2496.  2497.  2492.  2484.  2482.  2472.
  2470.  2463.  2460.  2452.  2449.  2442.  2436.  2432.  2428.  2427.
  2423.  2423.  2420.  2421.  2421.  2419.  2420.  2419.  2420.  2422.
  2426.  2426.  2433.  2434.  2436.  2439.  2442.  2447.  2450.  2457.
  2459.  2462.  2469.  2477.  2479.  2482.  2490.  2496.  2498.  2506.
  2506.  2510.  2514.  2517.  2520.  2524.  2532.  2533.  2534.  2537.
  2541.  2543.  2543.  2551.  2553.  2551.  2556.  2554.  2554.  2553.
  2554.  2551.  2553.  2549.  2543.  2541.  2542.  2536.  2532.  2529.
  2520.  2521.  2506.  2494.  2489.  2481.  2475.  2470.  2462.  2448.
  2444.  2440.  2435.  2433.  2420.  2421.  2417.  2413.  2409.  2405.
  2405.  2406.  2407.  2410.  2404.  2408.  2411.  2412.  2415.  2424.
  2427.  2433.  2434.  2442.  2445.  2447.  2451.  2461.  2464.  2470.
  2470.  2473.  2477.  2477.  2479.  2483.  2481.  2480.  2479.  2475.
  2472.  2470.  2467.  2463.  2454.  2452.  2445.  2448.  2443.  2437.
  2435.  2431.  2427.  2423.  2420.  2419.  2415.  2416.  2412.  2410.
  2406.  2406.  2405.  2403.  2402.  2401.  2398.  2395.  2396.  2390.
  2391.  2388.  2389.  2385.  2379.  2376.  2370.  2367.  2367.  2358.
  2359.  2352.  2348.  2347.  2340.  2331.  2330.  2329.  2328.  2325.
  2324.  2319.  2318.  2314.  2311.  2310.  2305.  2306.  2303.  2297.
  2290.  2290.  2287.  2285.  2284.  2282.  2281.  2281.  2277.  2277.
  2275.  2278.  2278.  2278.  2282.  2282.  2284.  2286.  2290.  2295.
  2300.  2305.  2306.  2311.  2310.  2320.  2325.  2328.  2333.  2341.
  2348.  2347.  2358.  2364.  2365.  2370.  2376.  2380.  2386.  2395.
  2395.  2398.  2405.  2411.  2418.  2417.  2421.  2422.  2427.  2433.
  2436.  2436.  2438.  2444.  2443.  2446.  2448.  2444.  2447.  2445.
  2446.  2449.  2450.  2451.  2452.  2457.  2457.  2456.  2458.  2461.
  2462.  2466.  2467.  2468.  2467.  2469.  2470.  2473.  2477.  2477.
  2482.  2478.  2477.  2483.  2483.  2483.  2486.  2487.  2488.  2491.
  2492.  2492.  2494.  2494.  2494.  2496.  2496.  2500.  2499.  2500.
  2502.  2497.  2499.  2495.  2504.  2500.  2499.  2505.  2502.  2499.
  2500.  2502.  2500.  2503.  2500.  2502.  2499.  2494.  2493.  2490.
  2485.  2480.  2474.  2473.  2465.  2458.  2453.  2448.  2443.  2438.
  2428.  2423.  2417.  2412.  2407.  2404.  2401.  2395.  2394.  2391.
  2386.  2386.  2387.  2389.  2388.  2392.  2393.  2398.  2402.  2408.
  2413.  2417.  2424.  2430.  2431.  2439.  2444.  2453.  2457.  2465.
  2471.  2476.  2481.  2485.  2493.  2503.  2510.  2514.  2515.  2525.
  2525.  2533.  2535.  2540.  2545.  2553.  2556.  2556.  2559.  2564.
  2563.  2565.  2568.  2571.  2571.  2569.  2571.  2567.  2568.  2568.
  2568.  2568.  2563.  2564.  2562.  2557.  2561.  2559.  2559.  2550.
  2548.  2544.  2541.  2540.  2538.  2534.  2535.  2536.  2533.  2532.
  2532.  2529.  2529.  2531.  2528.  2532.  2536.  2537.  2539.  2540.
  2541.  2546.  2552.  2554.  2559.  2564.  2568.  2567.  2575.  2578.
  2580.  2585.  2592.  2597.  2605.  2610.  2613.  2618.  2621.  2630.
  2634.  2645.  2646.  2653.  2661.  2667.  2672.  2679.  2684.  2690.
  2696.  2702.  2709.  2714.  2720.  2728.  2733.  3079.  2938.  2830.
  2893.  2869.  2799.  2934.  3001.  3187.  3312.  2758.  2749.  2746.
  2745.  2736.  2742.  2737.  2732.  2728.  2730.  2728.  2726.  2722.
  2720.  2722.  2719.  2717.  2718.  2719.  2719.  2717.  2718.  2714.
  2713.  2708.  2704.  2701.  2704.  2697.  2693.  2687.  2686.  2678.
  2673.  2671.  2664.  2663.  2656.  2655.  2641.  2634.  2631.  2622.]","3 + 7","0","space","NA","NA","space","2806","NA","NA","2806","LinregressResult(slope=0.52386065544262161, intercept=2363.5449058116233, rvalue=0.58122402282809904, pvalue=1.6214124334374814e-46, stderr=0.032865870282576419)","2","legacy","0.523860655443","1024","2","48000","-16","experiment","2507.0,2508.0,2507.0,2504.0,2496.0,2497.0,2492.0,2484.0,2482.0,2472.0,2470.0,2463.0,2460.0,2452.0,2449.0,2442.0,2436.0,2432.0,2428.0,2427.0,2423.0,2423.0,2420.0,2421.0,2421.0,2419.0,2420.0,2419.0,2420.0,2422.0,2426.0,2426.0,2433.0,2434.0,2436.0,2439.0,2442.0,2447.0,2450.0,2457.0,2459.0,2462.0,2469.0,2477.0,2479.0,2482.0,2490.0,2496.0,2498.0,2506.0,2506.0,2510.0,2514.0,2517.0,2520.0,2524.0,2532.0,2533.0,2534.0,2537.0,2541.0,2543.0,2543.0,2551.0,2553.0,2551.0,2556.0,2554.0,2554.0,2553.0,2554.0,2551.0,2553.0,2549.0,2543.0,2541.0,2542.0,2536.0,2532.0,2529.0,2520.0,2521.0,2506.0,2494.0,2489.0,2481.0,2475.0,2470.0,2462.0,2448.0,2444.0,2440.0,2435.0,2433.0,2420.0,2421.0,2417.0,2413.0,2409.0,2405.0,2405.0,2406.0,2407.0,2410.0,2404.0,2408.0,2411.0,2412.0,2415.0,2424.0,2427.0,2433.0,2434.0,2442.0,2445.0,2447.0,2451.0,2461.0,2464.0,2470.0,2470.0,2473.0,2477.0,2477.0,2479.0,2483.0,2481.0,2480.0,2479.0,2475.0,2472.0,2470.0,2467.0,2463.0,2454.0,2452.0,2445.0,2448.0,2443.0,2437.0,2435.0,2431.0,2427.0,2423.0,2420.0,2419.0,2415.0,2416.0,2412.0,2410.0,2406.0,2406.0,2405.0,2403.0,2402.0,2401.0,2398.0,2395.0,2396.0,2390.0,2391.0,2388.0,2389.0,2385.0,2379.0,2376.0,2370.0,2367.0,2367.0,2358.0,2359.0,2352.0,2348.0,2347.0,2340.0,2331.0,2330.0,2329.0,2328.0,2325.0,2324.0,2319.0,2318.0,2314.0,2311.0,2310.0,2305.0,2306.0,2303.0,2297.0,2290.0,2290.0,2287.0,2285.0,2284.0,2282.0,2281.0,2281.0,2277.0,2277.0,2275.0,2278.0,2278.0,2278.0,2282.0,2282.0,2284.0,2286.0,2290.0,2295.0,2300.0,2305.0,2306.0,2311.0,2310.0,2320.0,2325.0,2328.0,2333.0,2341.0,2348.0,2347.0,2358.0,2364.0,2365.0,2370.0,2376.0,2380.0,2386.0,2395.0,2395.0,2398.0,2405.0,2411.0,2418.0,2417.0,2421.0,2422.0,2427.0,2433.0,2436.0,2436.0,2438.0,2444.0,2443.0,2446.0,2448.0,2444.0,2447.0,2445.0,2446.0,2449.0,2450.0,2451.0,2452.0,2457.0,2457.0,2456.0,2458.0,2461.0,2462.0,2466.0,2467.0,2468.0,2467.0,2469.0,2470.0,2473.0,2477.0,2477.0,2482.0,2478.0,2477.0,2483.0,2483.0,2483.0,2486.0,2487.0,2488.0,2491.0,2492.0,2492.0,2494.0,2494.0,2494.0,2496.0,2496.0,2500.0,2499.0,2500.0,2502.0,2497.0,2499.0,2495.0,2504.0,2500.0,2499.0,2505.0,2502.0,2499.0,2500.0,2502.0,2500.0,2503.0,2500.0,2502.0,2499.0,2494.0,2493.0,2490.0,2485.0,2480.0,2474.0,2473.0,2465.0,2458.0,2453.0,2448.0,2443.0,2438.0,2428.0,2423.0,2417.0,2412.0,2407.0,2404.0,2401.0,2395.0,2394.0,2391.0,2386.0,2386.0,2387.0,2389.0,2388.0,2392.0,2393.0,2398.0,2402.0,2408.0,2413.0,2417.0,2424.0,2430.0,2431.0,2439.0,2444.0,2453.0,2457.0,2465.0,2471.0,2476.0,2481.0,2485.0,2493.0,2503.0,2510.0,2514.0,2515.0,2525.0,2525.0,2533.0,2535.0,2540.0,2545.0,2553.0,2556.0,2556.0,2559.0,2564.0,2563.0,2565.0,2568.0,2571.0,2571.0,2569.0,2571.0,2567.0,2568.0,2568.0,2568.0,2568.0,2563.0,2564.0,2562.0,2557.0,2561.0,2559.0,2559.0,2550.0,2548.0,2544.0,2541.0,2540.0,2538.0,2534.0,2535.0,2536.0,2533.0,2532.0,2532.0,2529.0,2529.0,2531.0,2528.0,2532.0,2536.0,2537.0,2539.0,2540.0,2541.0,2546.0,2552.0,2554.0,2559.0,2564.0,2568.0,2567.0,2575.0,2578.0,2580.0,2585.0,2592.0,2597.0,2605.0,2610.0,2613.0,2618.0,2621.0,2630.0,2634.0,2645.0,2646.0,2653.0,2661.0,2667.0,2672.0,2679.0,2684.0,2690.0,2696.0,2702.0,2709.0,2714.0,2720.0,2728.0,2733.0,3079.0,2938.0,2830.0,2893.0,2869.0,2799.0,2934.0,3001.0,3187.0,3312.0,2758.0,2749.0,2746.0,2745.0,2736.0,2742.0,2737.0,2732.0,2728.0,2730.0,2728.0,2726.0,2722.0,2720.0,2722.0,2719.0,2717.0,2718.0,2719.0,2719.0,2717.0,2718.0,2714.0,2713.0,2708.0,2704.0,2701.0,2704.0,2697.0,2693.0,2687.0,2686.0,2678.0,2673.0,2671.0,2664.0,2663.0,2656.0,2655.0,2641.0,2634.0,2631.0,2622.0","2","even","NA","NA","NA","arithmetic","48412","121835","NA","45318","126836","NA","44894","NA","NA","1616","120331","NA","121836","NA","1701","NA","NA","NA","127141","NA","118316","NA","126837","NA","119977","NA","117445","NA","45318","4507","NA","NA","NA","NA","44894","118316","NA","Extended template","0","0","0","yes","1024"
"undefined","undefined","undefined","undefined","black","yes","xpyriment","legacy","legacy","0","uniform","undefined","undefined","0","8","NA","0","8","NA","0","0","0","0","8","NA","8","NA","0","0","NA","NA","8","NA","8","NA","8","NA","8","NA","8","NA","0","0","0","0","NA","NA","0","8","NA","10/18/18 13:48:04","A template containing a practice and an experimental phase","medium","yes","Experiment.osexp","C:\Users\EEGExp\Desktop","no","mono","no","18","no","white","no","Ok","yes","768","legacy","8","8","0","C:/Users/EEGExp/Desktop/subject-2.csv","xpyriment","Kafkaesque Koffka","3.2.5","yes","[ 2721.  2719.  2720.  2716.  2710.  2714.  2709.  2709.  2705.  2698.
  2697.  2694.  2693.  2691.  2688.  2687.  2683.  2683.  2675.  2675.
  2669.  2670.  2666.  2663.  2658.  2659.  2654.  2652.  2649.  2644.
  2642.  2640.  2640.  2637.  2636.  2633.  2631.  2635.  2637.  2635.
  2641.  2639.  2642.  2648.  2650.  2654.  2656.  2655.  2661.  2664.
  2662.  2667.  2664.  2662.  2664.  2660.  2661.  2659.  2658.  2655.
  2649.  2651.  2646.  2644.  2641.  2638.  2636.  2634.  2626.  2629.
  2632.  2630.  2630.  2632.  2631.  2635.  2634.  2640.  2639.  2647.
  2649.  2654.  2657.  2660.  2667.  2674.  2680.  2686.  2692.  2701.
  2706.  2715.  2728.  2733.  2737.  2743.  2753.  2759.  2765.  2769.
  2782.  2784.  2788.  2793.  2801.  2803.  2806.  2807.  2805.  2807.
  2808.  2809.  2806.  2803.  2805.  2803.  2802.  2797.  2797.  2793.
  2786.  2785.  2784.  2781.  2778.  2775.  2771.  2764.  2760.  2758.
  2754.  2748.  2743.  2740.  2738.  2725.  2717.  2715.  2707.  2703.
  2695.  2692.  2691.  2684.  2670.  2665.  2667.  2657.  2655.  2648.
  2645.  2641.  2631.  2631.  2627.  2619.  2613.  2611.  2604.  2600.
  2602.  2598.  2594.  2594.  2594.  2595.  2598.  2597.  2601.  2602.
  2598.  2609.  2614.  2621.  2621.  2630.  2636.  2647.  2652.  2656.
  2660.  2670.  2675.  2683.  2689.  2692.  2696.  2701.  2705.  2709.
  2712.  2713.  2717.  2717.  2720.  2720.  2718.  2720.  2719.  2720.
  2720.  2714.  2709.  2707.  2703.  2699.  2693.  2693.  2680.  2678.
  2668.  2667.  2662.  2658.  2655.  2653.  2648.  2645.  2643.  2643.
  2642.  2643.  2642.  2648.  2647.  2647.  2649.  2648.  2657.  2659.
  2663.  2664.  2672.  2677.  2682.  2688.  2691.  2700.  2705.  2712.
  2718.  2724.  2732.  2735.  2740.  2741.  2752.  2758.  2763.  2761.
  2766.  2769.  2772.  2771.  2776.  2769.  2769.  2765.  2758.  2759.
  2757.  2757.  2753.  2750.  2747.  2748.  2743.  2748.  2743.  2743.
  2741.  2744.  2744.  2743.  2743.  2743.  2745.  2744.  2745.  2747.
  2748.  2754.  2754.  2756.  2756.  2756.  2757.  2761.  2764.  2764.
  2765.  2768.  2766.  2769.  2772.  2774.  2775.  2775.  2775.  2777.
  2777.  2780.  2778.  2780.  2780.  2785.  2783.  2786.  2786.  2788.
  2790.  2791.  2794.  2791.  2794.  2794.  2796.  2794.  2792.  2796.
  2795.  2792.  2790.  2793.  2791.  2790.  2791.  2789.  2790.  2789.
  2787.  2787.  2787.  2781.  2776.  2776.  2771.  2765.  2765.  2768.
  2756.  2757.  2761.  2753.  2748.  2748.  2746.  2738.  2736.  2735.
  2732.  2733.  2728.  2726.  2726.  2732.  2725.  2727.  2725.  2730.
  2729.  2730.  2730.  2738.  2730.  2732.  2734.  2737.  2742.  2742.
  2745.  2752.  2758.  2758.  2764.  2763.  2771.  2775.  2781.  2785.
  2788.  2792.  2797.  2800.  2807.  2810.  2812.  2817.  2819.  2825.
  2831.  2832.  2838.  2838.  2839.  2846.  2846.  2847.  2851.  2850.
  2854.  2851.  2853.  2852.  2855.  2851.  2853.  2855.  2856.  2856.
  2854.  2854.  2850.  2850.  2849.  2847.  2848.  2845.  2843.  2839.
  2837.  2833.  2831.  2826.  2826.  2821.  2815.  2804.  2801.  2793.
  2791.  2782.  2775.  2767.  2759.  2749.  2733.  2724.  2718.  2713.
  2699.  2691.  2686.  2675.  2670.  2665.  2653.  2644.  2637.  2636.
  2630.  2621.  2621.  2617.  2610.  2610.  2610.  2608.  2607.  2613.
  2604.  2607.  2607.  2607.  2610.  2614.  2615.  2618.  2622.  2624.
  2626.  2629.  2633.  2636.  2637.  2641.  2643.  2648.  2649.  2655.
  2657.  2658.  2667.  2668.  2673.  2678.  2684.  2690.  2694.  2699.
  2708.  2715.  2720.  2723.  2730.  2734.  2744.  2749.  2752.  2757.]","4x = 16","0","space","NA","NA","space","2806","NA","NA","2806","LinregressResult(slope=0.15235889743558972, intercept=2680.276096192385, rvalue=0.32034064999619716, pvalue=2.1456069005097131e-13, stderr=0.020189694264582593)","2","legacy","0.152358897436","1024","2","48000","-16","experiment","2721.0,2719.0,2720.0,2716.0,2710.0,2714.0,2709.0,2709.0,2705.0,2698.0,2697.0,2694.0,2693.0,2691.0,2688.0,2687.0,2683.0,2683.0,2675.0,2675.0,2669.0,2670.0,2666.0,2663.0,2658.0,2659.0,2654.0,2652.0,2649.0,2644.0,2642.0,2640.0,2640.0,2637.0,2636.0,2633.0,2631.0,2635.0,2637.0,2635.0,2641.0,2639.0,2642.0,2648.0,2650.0,2654.0,2656.0,2655.0,2661.0,2664.0,2662.0,2667.0,2664.0,2662.0,2664.0,2660.0,2661.0,2659.0,2658.0,2655.0,2649.0,2651.0,2646.0,2644.0,2641.0,2638.0,2636.0,2634.0,2626.0,2629.0,2632.0,2630.0,2630.0,2632.0,2631.0,2635.0,2634.0,2640.0,2639.0,2647.0,2649.0,2654.0,2657.0,2660.0,2667.0,2674.0,2680.0,2686.0,2692.0,2701.0,2706.0,2715.0,2728.0,2733.0,2737.0,2743.0,2753.0,2759.0,2765.0,2769.0,2782.0,2784.0,2788.0,2793.0,2801.0,2803.0,2806.0,2807.0,2805.0,2807.0,2808.0,2809.0,2806.0,2803.0,2805.0,2803.0,2802.0,2797.0,2797.0,2793.0,2786.0,2785.0,2784.0,2781.0,2778.0,2775.0,2771.0,2764.0,2760.0,2758.0,2754.0,2748.0,2743.0,2740.0,2738.0,2725.0,2717.0,2715.0,2707.0,2703.0,2695.0,2692.0,2691.0,2684.0,2670.0,2665.0,2667.0,2657.0,2655.0,2648.0,2645.0,2641.0,2631.0,2631.0,2627.0,2619.0,2613.0,2611.0,2604.0,2600.0,2602.0,2598.0,2594.0,2594.0,2594.0,2595.0,2598.0,2597.0,2601.0,2602.0,2598.0,2609.0,2614.0,2621.0,2621.0,2630.0,2636.0,2647.0,2652.0,2656.0,2660.0,2670.0,2675.0,2683.0,2689.0,2692.0,2696.0,2701.0,2705.0,2709.0,2712.0,2713.0,2717.0,2717.0,2720.0,2720.0,2718.0,2720.0,2719.0,2720.0,2720.0,2714.0,2709.0,2707.0,2703.0,2699.0,2693.0,2693.0,2680.0,2678.0,2668.0,2667.0,2662.0,2658.0,2655.0,2653.0,2648.0,2645.0,2643.0,2643.0,2642.0,2643.0,2642.0,2648.0,2647.0,2647.0,2649.0,2648.0,2657.0,2659.0,2663.0,2664.0,2672.0,2677.0,2682.0,2688.0,2691.0,2700.0,2705.0,2712.0,2718.0,2724.0,2732.0,2735.0,2740.0,2741.0,2752.0,2758.0,2763.0,2761.0,2766.0,2769.0,2772.0,2771.0,2776.0,2769.0,2769.0,2765.0,2758.0,2759.0,2757.0,2757.0,2753.0,2750.0,2747.0,2748.0,2743.0,2748.0,2743.0,2743.0,2741.0,2744.0,2744.0,2743.0,2743.0,2743.0,2745.0,2744.0,2745.0,2747.0,2748.0,2754.0,2754.0,2756.0,2756.0,2756.0,2757.0,2761.0,2764.0,2764.0,2765.0,2768.0,2766.0,2769.0,2772.0,2774.0,2775.0,2775.0,2775.0,2777.0,2777.0,2780.0,2778.0,2780.0,2780.0,2785.0,2783.0,2786.0,2786.0,2788.0,2790.0,2791.0,2794.0,2791.0,2794.0,2794.0,2796.0,2794.0,2792.0,2796.0,2795.0,2792.0,2790.0,2793.0,2791.0,2790.0,2791.0,2789.0,2790.0,2789.0,2787.0,2787.0,2787.0,2781.0,2776.0,2776.0,2771.0,2765.0,2765.0,2768.0,2756.0,2757.0,2761.0,2753.0,2748.0,2748.0,2746.0,2738.0,2736.0,2735.0,2732.0,2733.0,2728.0,2726.0,2726.0,2732.0,2725.0,2727.0,2725.0,2730.0,2729.0,2730.0,2730.0,2738.0,2730.0,2732.0,2734.0,2737.0,2742.0,2742.0,2745.0,2752.0,2758.0,2758.0,2764.0,2763.0,2771.0,2775.0,2781.0,2785.0,2788.0,2792.0,2797.0,2800.0,2807.0,2810.0,2812.0,2817.0,2819.0,2825.0,2831.0,2832.0,2838.0,2838.0,2839.0,2846.0,2846.0,2847.0,2851.0,2850.0,2854.0,2851.0,2853.0,2852.0,2855.0,2851.0,2853.0,2855.0,2856.0,2856.0,2854.0,2854.0,2850.0,2850.0,2849.0,2847.0,2848.0,2845.0,2843.0,2839.0,2837.0,2833.0,2831.0,2826.0,2826.0,2821.0,2815.0,2804.0,2801.0,2793.0,2791.0,2782.0,2775.0,2767.0,2759.0,2749.0,2733.0,2724.0,2718.0,2713.0,2699.0,2691.0,2686.0,2675.0,2670.0,2665.0,2653.0,2644.0,2637.0,2636.0,2630.0,2621.0,2621.0,2617.0,2610.0,2610.0,2610.0,2608.0,2607.0,2613.0,2604.0,2607.0,2607.0,2607.0,2610.0,2614.0,2615.0,2618.0,2622.0,2624.0,2626.0,2629.0,2633.0,2636.0,2637.0,2641.0,2643.0,2648.0,2649.0,2655.0,2657.0,2658.0,2667.0,2668.0,2673.0,2678.0,2684.0,2690.0,2694.0,2699.0,2708.0,2715.0,2720.0,2723.0,2730.0,2734.0,2744.0,2749.0,2752.0,2757.0","2","even","NA","NA","NA","arithmetic","48412","132413","NA","45318","137414","NA","44894","NA","NA","1616","130908","NA","132414","NA","1701","NA","NA","NA","137719","NA","128026","NA","137415","NA","130558","NA","127155","NA","45318","4507","NA","NA","NA","NA","44894","128026","NA","Extended template","0","0","0","yes","1024"
"undefined","undefined","undefined","undefined","black","yes","xpyriment","legacy","legacy","0","uniform","undefined","undefined","0","9","NA","0","9","NA","0","0","0","0","9","NA","9","NA","0","0","NA","NA","9","NA","9","NA","9","NA","9","NA","9","NA","0","0","0","0","NA","NA","0","9","NA","10/18/18 13:48:04","A template containing a practice and an experimental phase","easy","yes","Experiment.osexp","C:\Users\EEGExp\Desktop","no","mono","no","18","no","white","no","Ok","yes","768","legacy","9","9","0","C:/Users/EEGExp/Desktop/subject-2.csv","xpyriment","Kafkaesque Koffka","3.2.5","yes","[ 2643.  2638.  2634.  2628.  2625.  2618.  2618.  2614.  2609.  2612.
  2607.  2607.  2608.  2607.  2609.  2606.  2609.  2608.  2605.  2609.
  2611.  2614.  2614.  2623.  2624.  2627.  2632.  2633.  2638.  2638.
  2647.  2649.  2651.  2656.  2656.  2659.  2662.  2668.  2673.  2676.
  2680.  2684.  2689.  2694.  2698.  2703.  2706.  2711.  2714.  2721.
  2721.  2725.  2730.  2732.  2733.  2735.  2733.  2737.  2734.  2732.
  2726.  2726.  2722.  2716.  2710.  2709.  2700.  2693.  2690.  2681.
  2675.  2670.  2661.  2656.  2650.  2643.  2638.  2639.  2632.  2631.
  2627.  2626.  2627.  2626.  2626.  2630.  2628.  2628.  2629.  2631.
  2632.  2639.  2639.  2644.  2643.  2650.  2656.  2662.  2661.  2667.
  2670.  2678.  2681.  2685.  2690.  2692.  2698.  2702.  2702.  2708.
  2709.  2707.  2709.  2711.  2708.  2710.  2711.  2708.  2711.  2708.
  2708.  2707.  2703.  2699.  2696.  2697.  2692.  2688.  2684.  2684.
  2679.  2676.  2672.  2666.  2664.  2661.  2651.  2651.  2649.  2644.
  2643.  2642.  2635.  2633.  2629.  2629.  2624.  2622.  2618.  2615.
  2611.  2611.  2608.  2600.  2596.  2593.  2591.  2584.  2580.  2575.
  2571.  2563.  2555.  2546.  2543.  2530.  2518.  2510.  2502.  2489.
  2482.  2469.  2453.  2441.  2427.  2411.  2400.  2389.  2372.  2362.
  2343.  2330.  2315.  2306.  2292.  2281.  2266.  2257.  2245.  2237.
  2232.  2218.  2209.  2206.  2196.  2186.  2181.  2174.  2165.  2155.
  2151.  2143.  2128.  2119.  2113.  2103.  2095.  2085.  2076.  2068.
  2058.  2050.  2039.  2031.  2025.  2014.  2012.  2000.  1993.  1987.
  1984.  1975.  1972.  1967.  1967.  1962.  1960.  1959.  1952.  1950.
  1946.  1942.  1940.  1940.  1934.  1931.  1934.  1934.  1932.  1929.
  1926.  1925.  1925.  1920.  1923.  1923.  1924.  1925.  1922.  1923.
  1925.  1928.  1928.  1933.  1934.  1936.  1944.  1947.  1955.  1956.
  1962.  1971.  1977.  1979.  1987.  1992.  1999.  2010.  2021.  2027.
  2034.  2043.  2053.  2064.  2073.  2083.  2092.  2103.  2113.  2123.
  2136.  2146.  2159.  2172.  2183.  2189.  2204.  2217.  2227.  2236.
  2246.  2254.  2263.  2274.  2286.  2288.  2293.  2302.  2309.  2315.
  2321.  2324.  2326.  2333.  2335.  2340.  2342.  2344.  2345.  2350.
  2352.  2356.  2358.  2356.  2365.  2366.  2367.  2371.  2367.  2370.
  2373.  2378.  2378.  2381.  2383.  2383.  2389.  2388.  2389.  2396.
  2397.  2398.  2402.  2405.  2408.  2411.  2417.  2417.  2424.  2424.
  2429.  2435.  2434.  2440.  2444.  2450.  2455.  2458.  2461.  2471.
  2473.  2475.  2477.  2482.  2483.  2484.  2481.  2483.  2483.  2482.
  2481.  2479.  2475.  2471.  2461.  2454.  2447.  2438.  2429.  2420.
  2407.  2399.  2393.  2389.  2380.  2372.  2366.  2357.  2350.  2346.
  2345.  2341.  2333.  2327.  2330.  2327.  2321.  2318.  2317.  2320.
  2318.  2315.  2314.  2316.  2314.  2316.  2318.  2317.  2322.  2319.
  2318.  2321.  2318.  2318.  2319.  2316.  2319.  2317.  2318.  2316.
  2316.  2318.  2315.  2314.  2312.  2309.  2308.  2309.  2305.  2303.
  2301.  2306.  2301.  2301.  2301.  2298.  2296.  2294.  2295.  2292.
  2289.  2289.  2288.  2287.  2282.  2285.  2285.  2280.  2281.  2280.
  2278.  2279.  2280.  2276.  2276.  2275.  2277.  2282.  2282.  2285.
  2287.  2290.  2295.  2296.  2300.  2307.  2307.  2310.  2316.  2319.
  2321.  2325.  2331.  2333.  2332.  2339.  2345.  2348.  2353.  2352.
  2357.  2361.  2363.  2371.  2377.  2381.  2387.  2392.  2399.  2405.
  2411.  2418.  2427.  2433.  2441.  2450.  2457.  2465.  2474.  2482.
  2491.  2499.  2504.  2508.  2518.  2524.  2528.  2533.  2538.  2543.]","4 + 3","0","space","NA","NA","space","2806","NA","NA","2806","LinregressResult(slope=-0.75183363133452541, intercept=2584.3383246492986, rvalue=-0.46622007899587931, pvalue=2.3890795094358474e-28, stderr=0.063928836693006905)","2","legacy","-0.751833631335","1024","2","48000","-16","experiment","2643.0,2638.0,2634.0,2628.0,2625.0,2618.0,2618.0,2614.0,2609.0,2612.0,2607.0,2607.0,2608.0,2607.0,2609.0,2606.0,2609.0,2608.0,2605.0,2609.0,2611.0,2614.0,2614.0,2623.0,2624.0,2627.0,2632.0,2633.0,2638.0,2638.0,2647.0,2649.0,2651.0,2656.0,2656.0,2659.0,2662.0,2668.0,2673.0,2676.0,2680.0,2684.0,2689.0,2694.0,2698.0,2703.0,2706.0,2711.0,2714.0,2721.0,2721.0,2725.0,2730.0,2732.0,2733.0,2735.0,2733.0,2737.0,2734.0,2732.0,2726.0,2726.0,2722.0,2716.0,2710.0,2709.0,2700.0,2693.0,2690.0,2681.0,2675.0,2670.0,2661.0,2656.0,2650.0,2643.0,2638.0,2639.0,2632.0,2631.0,2627.0,2626.0,2627.0,2626.0,2626.0,2630.0,2628.0,2628.0,2629.0,2631.0,2632.0,2639.0,2639.0,2644.0,2643.0,2650.0,2656.0,2662.0,2661.0,2667.0,2670.0,2678.0,2681.0,2685.0,2690.0,2692.0,2698.0,2702.0,2702.0,2708.0,2709.0,2707.0,2709.0,2711.0,2708.0,2710.0,2711.0,2708.0,2711.0,2708.0,2708.0,2707.0,2703.0,2699.0,2696.0,2697.0,2692.0,2688.0,2684.0,2684.0,2679.0,2676.0,2672.0,2666.0,2664.0,2661.0,2651.0,2651.0,2649.0,2644.0,2643.0,2642.0,2635.0,2633.0,2629.0,2629.0,2624.0,2622.0,2618.0,2615.0,2611.0,2611.0,2608.0,2600.0,2596.0,2593.0,2591.0,2584.0,2580.0,2575.0,2571.0,2563.0,2555.0,2546.0,2543.0,2530.0,2518.0,2510.0,2502.0,2489.0,2482.0,2469.0,2453.0,2441.0,2427.0,2411.0,2400.0,2389.0,2372.0,2362.0,2343.0,2330.0,2315.0,2306.0,2292.0,2281.0,2266.0,2257.0,2245.0,2237.0,2232.0,2218.0,2209.0,2206.0,2196.0,2186.0,2181.0,2174.0,2165.0,2155.0,2151.0,2143.0,2128.0,2119.0,2113.0,2103.0,2095.0,2085.0,2076.0,2068.0,2058.0,2050.0,2039.0,2031.0,2025.0,2014.0,2012.0,2000.0,1993.0,1987.0,1984.0,1975.0,1972.0,1967.0,1967.0,1962.0,1960.0,1959.0,1952.0,1950.0,1946.0,1942.0,1940.0,1940.0,1934.0,1931.0,1934.0,1934.0,1932.0,1929.0,1926.0,1925.0,1925.0,1920.0,1923.0,1923.0,1924.0,1925.0,1922.0,1923.0,1925.0,1928.0,1928.0,1933.0,1934.0,1936.0,1944.0,1947.0,1955.0,1956.0,1962.0,1971.0,1977.0,1979.0,1987.0,1992.0,1999.0,2010.0,2021.0,2027.0,2034.0,2043.0,2053.0,2064.0,2073.0,2083.0,2092.0,2103.0,2113.0,2123.0,2136.0,2146.0,2159.0,2172.0,2183.0,2189.0,2204.0,2217.0,2227.0,2236.0,2246.0,2254.0,2263.0,2274.0,2286.0,2288.0,2293.0,2302.0,2309.0,2315.0,2321.0,2324.0,2326.0,2333.0,2335.0,2340.0,2342.0,2344.0,2345.0,2350.0,2352.0,2356.0,2358.0,2356.0,2365.0,2366.0,2367.0,2371.0,2367.0,2370.0,2373.0,2378.0,2378.0,2381.0,2383.0,2383.0,2389.0,2388.0,2389.0,2396.0,2397.0,2398.0,2402.0,2405.0,2408.0,2411.0,2417.0,2417.0,2424.0,2424.0,2429.0,2435.0,2434.0,2440.0,2444.0,2450.0,2455.0,2458.0,2461.0,2471.0,2473.0,2475.0,2477.0,2482.0,2483.0,2484.0,2481.0,2483.0,2483.0,2482.0,2481.0,2479.0,2475.0,2471.0,2461.0,2454.0,2447.0,2438.0,2429.0,2420.0,2407.0,2399.0,2393.0,2389.0,2380.0,2372.0,2366.0,2357.0,2350.0,2346.0,2345.0,2341.0,2333.0,2327.0,2330.0,2327.0,2321.0,2318.0,2317.0,2320.0,2318.0,2315.0,2314.0,2316.0,2314.0,2316.0,2318.0,2317.0,2322.0,2319.0,2318.0,2321.0,2318.0,2318.0,2319.0,2316.0,2319.0,2317.0,2318.0,2316.0,2316.0,2318.0,2315.0,2314.0,2312.0,2309.0,2308.0,2309.0,2305.0,2303.0,2301.0,2306.0,2301.0,2301.0,2301.0,2298.0,2296.0,2294.0,2295.0,2292.0,2289.0,2289.0,2288.0,2287.0,2282.0,2285.0,2285.0,2280.0,2281.0,2280.0,2278.0,2279.0,2280.0,2276.0,2276.0,2275.0,2277.0,2282.0,2282.0,2285.0,2287.0,2290.0,2295.0,2296.0,2300.0,2307.0,2307.0,2310.0,2316.0,2319.0,2321.0,2325.0,2331.0,2333.0,2332.0,2339.0,2345.0,2348.0,2353.0,2352.0,2357.0,2361.0,2363.0,2371.0,2377.0,2381.0,2387.0,2392.0,2399.0,2405.0,2411.0,2418.0,2427.0,2433.0,2441.0,2450.0,2457.0,2465.0,2474.0,2482.0,2491.0,2499.0,2504.0,2508.0,2518.0,2524.0,2528.0,2533.0,2538.0,2543.0","2","even","NA","NA","NA","arithmetic","48412","141485","NA","45318","146486","NA","44894","NA","NA","1616","139980","NA","141486","NA","1701","NA","NA","NA","146791","NA","138625","NA","146487","NA","139627","NA","137734","NA","45318","4507","NA","NA","NA","NA","44894","138625","NA","Extended template","0","0","0","yes","1024"
"undefined","undefined","undefined","undefined","black","yes","xpyriment","legacy","legacy","0","uniform","undefined","undefined","0","10","NA","0","10","NA","0","0","0","0","10","NA","10","NA","0","0","NA","NA","10","NA","10","NA","10","NA","10","NA","10","NA","0","0","0","0","NA","NA","0","10","NA","10/18/18 13:48:04","A template containing a practice and an experimental phase","hard","yes","Experiment.osexp","C:\Users\EEGExp\Desktop","no","mono","no","18","no","white","no","Ok","yes","768","legacy","10","10","0","C:/Users/EEGExp/Desktop/subject-2.csv","xpyriment","Kafkaesque Koffka","3.2.5","yes","[ 2324.  2322.  2324.  2322.  2314.  2311.  2309.  2306.  2303.  2302.
  2294.  2297.  2292.  2290.  2289.  2284.  2284.  2280.  2281.  2277.
  2277.  2271.  2276.  2273.  2271.  2270.  2273.  2269.  2270.  2270.
  2272.  2271.  2275.  2275.  2273.  2277.  2280.  2285.  2292.  2289.
  2292.  2301.  2305.  2308.  2315.  2323.  2328.  2332.  2341.  2346.
  2355.  2358.  2364.  2371.  2373.  2377.  2376.  2380.  2384.  2389.
  2390.  2396.  2395.  2400.  2402.  2406.  2405.  2409.  2409.  2413.
  2416.  2422.  2427.  2435.  2437.  2444.  2455.  2460.  2467.  2475.
  2480.  2493.  2499.  2505.  2508.  2519.  2529.  2535.  2548.  2552.
  2568.  2575.  2588.  2598.  2608.  2613.  2626.  2633.  2644.  2656.
  2670.  2671.  2682.  2684.  2693.  2701.  2703.  2712.  2721.  2725.
  2733.  2738.  2741.  2748.  2753.  2757.  2764.  2770.  2775.  2778.
  2785.  2787.  2793.  2796.  2799.  2804.  2804.  2808.  2810.  2810.
  2810.  2811.  2812.  2814.  2815.  2816.  2816.  2815.  2813.  2811.
  2812.  2813.  2813.  2813.  2812.  2813.  2812.  2813.  2807.  2810.
  2809.  2805.  2809.  2805.  2807.  2802.  2803.  2803.  2798.  2799.
  2797.  2797.  2795.  2793.  2792.  2789.  2789.  2791.  2789.  2791.
  2791.  2789.  2790.  2796.  2795.  2798.  2800.  2803.  2806.  2808.
  2812.  2814.  2818.  2819.  2825.  2828.  2830.  2830.  2829.  2832.
  2834.  2837.  2843.  2847.  2846.  2853.  2854.  2853.  2853.  2859.
  2858.  2861.  2859.  2858.  2856.  2858.  2854.  2852.  2850.  2852.
  2849.  2847.  2845.  2844.  2843.  2842.  2838.  2840.  2839.  2840.
  2839.  2839.  2836.  2834.  2836.  2833.  2833.  2834.  2836.  2834.
  2829.  2834.  2838.  2838.  2836.  2841.  2843.  2843.  2847.  2851.
  2850.  2856.  2853.  2857.  2861.  2862.  2868.  2869.  2868.  2870.
  2872.  2871.  2873.  2877.  2876.  2872.  2871.  2872.  2868.  2869.
  2865.  2862.  2857.  2858.  2855.  2852.  2850.  2845.  2842.  2841.
  2836.  2833.  2830.  2827.  2819.  2821.  2815.  2811.  2807.  2804.
  2796.  2802.  2794.  2792.  2788.  2788.  2781.  2781.  2782.  2776.
  2770.  2765.  2763.  2760.  2760.  2755.  2755.  2750.  2746.  2741.
  2737.  2735.  2734.  2736.  2730.  2732.  2725.  2719.  2716.  2710.
  2707.  2708.  2703.  2702.  2695.  2685.  2685.  2676.  2666.  2661.
  2653.  2646.  2636.  2631.  2621.  2619.  2606.  2599.  2591.  2590.
  2581.  2573.  2564.  2561.  2555.  2551.  2540.  2533.  2525.  2522.
  2519.  2511.  2501.  2497.  2494.  2487.  2483.  2480.  2477.  2473.
  2468.  2464.  2465.  2460.  2457.  2452.  2448.  2445.  2439.  2441.
  2436.  2433.  2427.  2424.  2420.  2421.  2419.  2415.  2415.  2410.
  2407.  2405.  2401.  2401.  2395.  2392.  2386.  2376.  2370.  2369.
  2355.  2347.  2346.  2334.  2333.  2323.  2315.  2313.  2304.  2300.
  2295.  2289.  2280.  2273.  2264.  2262.  2257.  2257.  2246.  2243.
  2233.  2227.  2222.  2217.  2211.  2202.  2196.  2187.  2187.  2178.
  2170.  2163.  2155.  2148.  2142.  2142.  2132.  2126.  2120.  2113.
  2109.  2103.  2097.  2090.  2085.  2080.  2073.  2071.  2065.  2060.
  2058.  2052.  2049.  2050.  2043.  2041.  2037.  2033.  2029.  2022.
  2020.  2020.  2014.  2007.  2005.  2001.  1999.  1993.  1989.  1984.
  1983.  1976.  1970.  1971.  1968.  1961.  1962.  1959.  1954.  1952.
  1947.  1947.  1946.  1941.  1941.  1939.  1935.  1934.  1934.  1932.
  1929.  1928.  1925.  1923.  1922.  1920.  1917.  1915.  1916.  1913.
  1913.  1912.  1910.  1910.  1913.  1914.  1916.  1916.  1914.  1913.
  1914.  1918.  1918.  1916.  1918.  1922.  1924.  1930.  1929.  1927.]","4x - 2 = 10","0","space","NA","NA","space","2806","NA","NA","2806","LinregressResult(slope=-1.0317347989391956, intercept=2761.6035671342684, rvalue=-0.47430253803809169, pvalue=2.0673309267938872e-29, stderr=0.08581420938873871)","2","legacy","-1.03173479894","1024","2","48000","-16","experiment","2324.0,2322.0,2324.0,2322.0,2314.0,2311.0,2309.0,2306.0,2303.0,2302.0,2294.0,2297.0,2292.0,2290.0,2289.0,2284.0,2284.0,2280.0,2281.0,2277.0,2277.0,2271.0,2276.0,2273.0,2271.0,2270.0,2273.0,2269.0,2270.0,2270.0,2272.0,2271.0,2275.0,2275.0,2273.0,2277.0,2280.0,2285.0,2292.0,2289.0,2292.0,2301.0,2305.0,2308.0,2315.0,2323.0,2328.0,2332.0,2341.0,2346.0,2355.0,2358.0,2364.0,2371.0,2373.0,2377.0,2376.0,2380.0,2384.0,2389.0,2390.0,2396.0,2395.0,2400.0,2402.0,2406.0,2405.0,2409.0,2409.0,2413.0,2416.0,2422.0,2427.0,2435.0,2437.0,2444.0,2455.0,2460.0,2467.0,2475.0,2480.0,2493.0,2499.0,2505.0,2508.0,2519.0,2529.0,2535.0,2548.0,2552.0,2568.0,2575.0,2588.0,2598.0,2608.0,2613.0,2626.0,2633.0,2644.0,2656.0,2670.0,2671.0,2682.0,2684.0,2693.0,2701.0,2703.0,2712.0,2721.0,2725.0,2733.0,2738.0,2741.0,2748.0,2753.0,2757.0,2764.0,2770.0,2775.0,2778.0,2785.0,2787.0,2793.0,2796.0,2799.0,2804.0,2804.0,2808.0,2810.0,2810.0,2810.0,2811.0,2812.0,2814.0,2815.0,2816.0,2816.0,2815.0,2813.0,2811.0,2812.0,2813.0,2813.0,2813.0,2812.0,2813.0,2812.0,2813.0,2807.0,2810.0,2809.0,2805.0,2809.0,2805.0,2807.0,2802.0,2803.0,2803.0,2798.0,2799.0,2797.0,2797.0,2795.0,2793.0,2792.0,2789.0,2789.0,2791.0,2789.0,2791.0,2791.0,2789.0,2790.0,2796.0,2795.0,2798.0,2800.0,2803.0,2806.0,2808.0,2812.0,2814.0,2818.0,2819.0,2825.0,2828.0,2830.0,2830.0,2829.0,2832.0,2834.0,2837.0,2843.0,2847.0,2846.0,2853.0,2854.0,2853.0,2853.0,2859.0,2858.0,2861.0,2859.0,2858.0,2856.0,2858.0,2854.0,2852.0,2850.0,2852.0,2849.0,2847.0,2845.0,2844.0,2843.0,2842.0,2838.0,2840.0,2839.0,2840.0,2839.0,2839.0,2836.0,2834.0,2836.0,2833.0,2833.0,2834.0,2836.0,2834.0,2829.0,2834.0,2838.0,2838.0,2836.0,2841.0,2843.0,2843.0,2847.0,2851.0,2850.0,2856.0,2853.0,2857.0,2861.0,2862.0,2868.0,2869.0,2868.0,2870.0,2872.0,2871.0,2873.0,2877.0,2876.0,2872.0,2871.0,2872.0,2868.0,2869.0,2865.0,2862.0,2857.0,2858.0,2855.0,2852.0,2850.0,2845.0,2842.0,2841.0,2836.0,2833.0,2830.0,2827.0,2819.0,2821.0,2815.0,2811.0,2807.0,2804.0,2796.0,2802.0,2794.0,2792.0,2788.0,2788.0,2781.0,2781.0,2782.0,2776.0,2770.0,2765.0,2763.0,2760.0,2760.0,2755.0,2755.0,2750.0,2746.0,2741.0,2737.0,2735.0,2734.0,2736.0,2730.0,2732.0,2725.0,2719.0,2716.0,2710.0,2707.0,2708.0,2703.0,2702.0,2695.0,2685.0,2685.0,2676.0,2666.0,2661.0,2653.0,2646.0,2636.0,2631.0,2621.0,2619.0,2606.0,2599.0,2591.0,2590.0,2581.0,2573.0,2564.0,2561.0,2555.0,2551.0,2540.0,2533.0,2525.0,2522.0,2519.0,2511.0,2501.0,2497.0,2494.0,2487.0,2483.0,2480.0,2477.0,2473.0,2468.0,2464.0,2465.0,2460.0,2457.0,2452.0,2448.0,2445.0,2439.0,2441.0,2436.0,2433.0,2427.0,2424.0,2420.0,2421.0,2419.0,2415.0,2415.0,2410.0,2407.0,2405.0,2401.0,2401.0,2395.0,2392.0,2386.0,2376.0,2370.0,2369.0,2355.0,2347.0,2346.0,2334.0,2333.0,2323.0,2315.0,2313.0,2304.0,2300.0,2295.0,2289.0,2280.0,2273.0,2264.0,2262.0,2257.0,2257.0,2246.0,2243.0,2233.0,2227.0,2222.0,2217.0,2211.0,2202.0,2196.0,2187.0,2187.0,2178.0,2170.0,2163.0,2155.0,2148.0,2142.0,2142.0,2132.0,2126.0,2120.0,2113.0,2109.0,2103.0,2097.0,2090.0,2085.0,2080.0,2073.0,2071.0,2065.0,2060.0,2058.0,2052.0,2049.0,2050.0,2043.0,2041.0,2037.0,2033.0,2029.0,2022.0,2020.0,2020.0,2014.0,2007.0,2005.0,2001.0,1999.0,1993.0,1989.0,1984.0,1983.0,1976.0,1970.0,1971.0,1968.0,1961.0,1962.0,1959.0,1954.0,1952.0,1947.0,1947.0,1946.0,1941.0,1941.0,1939.0,1935.0,1934.0,1934.0,1932.0,1929.0,1928.0,1925.0,1923.0,1922.0,1920.0,1917.0,1915.0,1916.0,1913.0,1913.0,1912.0,1910.0,1910.0,1913.0,1914.0,1916.0,1916.0,1914.0,1913.0,1914.0,1918.0,1918.0,1916.0,1918.0,1922.0,1924.0,1930.0,1929.0,1927.0","2","even","NA","NA","NA","arithmetic","48412","150545","NA","45318","155546","NA","44894","NA","NA","1616","149041","NA","150546","NA","1701","NA","NA","NA","155851","NA","147687","NA","155547","NA","148689","NA","146808","NA","45318","4507","NA","NA","NA","NA","44894","147687","NA","Extended template","0","0","0","yes","1024"
"undefined","undefined","undefined","undefined","black","yes","xpyriment","legacy","legacy","0","uniform","undefined","undefined","0","11","NA","0","11","NA","0","0","0","0","11","NA","11","NA","0","0","NA","NA","11","NA","11","NA","11","NA","11","NA","11","NA","0","0","0","0","NA","NA","0","11","NA","10/18/18 13:48:04","A template containing a practice and an experimental phase","medium","yes","Experiment.osexp","C:\Users\EEGExp\Desktop","no","mono","no","18","no","white","no","Ok","yes","768","legacy","11","11","0","C:/Users/EEGExp/Desktop/subject-2.csv","xpyriment","Kafkaesque Koffka","3.2.5","yes","[ 2716.  2709.  2703.  2690.  2684.  2675.  2667.  2659.  2649.  2642.
  2637.  2625.  2617.  2611.  2601.  2599.  2589.  2584.  2579.  2571.
  2560.  2553.  2553.  2544.  2543.  2537.  2538.  2533.  2534.  2529.
  2530.  2533.  2530.  2531.  2531.  2538.  2547.  2550.  2554.  2556.
  2562.  2573.  2577.  2589.  2599.  2602.  2614.  2624.  2630.  2635.
  2650.  2656.  2663.  2675.  2679.  2686.  2696.  2706.  2711.  2716.
  2721.  2735.  2734.  2746.  2751.  2761.  2766.  2772.  2780.  2788.
  2796.  2800.  2807.  2814.  2817.  2828.  2839.  2839.  2850.  2854.
  2861.  2869.  2870.  2878.  2888.  2890.  2892.  2897.  2905.  2906.
  2908.  2909.  2912.  2914.  2919.  2915.  2919.  2914.  2912.  2914.
  2917.  2917.  2912.  2911.  2909.  2903.  2902.  2899.  2897.  2897.
  2901.  2896.  2897.  2896.  2897.  2900.  2901.  2901.  2900.  2904.
  2911.  2916.  2915.  2922.  2923.  2929.  2929.  2935.  2942.  2942.
  2947.  2954.  2956.  2963.  2968.  2968.  2968.  2974.  2973.  2984.
  2985.  2984.  2993.  2995.  2992.  2994.  2997.  2996.  3004.  3001.
  2999.  3003.  3001.  2998.  2998.  2997.  2998.  2996.  2995.  2994.
  2994.  2992.  2985.  2983.  2983.  2981.  2985.  2980.  2985.  2981.
  2984.  2983.  2980.  2981.  2982.  2983.  2983.  2979.  2973.  2968.
  2970.  2963.  2963.  2956.  2954.  2950.  2948.  2945.  2937.  2936.
  2927.  2926.  2923.  2917.  2914.  2911.  2912.  2905.  2902.  2900.
  2898.  2896.  2890.  2888.  2885.  2882.  2878.  2877.  2878.  2874.
  2869.  2865.  2863.  2863.  2860.  2854.  2856.  2850.  2850.  2844.
  2849.  2840.  2835.  2834.  2827.  2825.  2827.  2818.  2816.  2813.
  2809.  2807.  2806.  2806.  2803.  2801.  2804.  2801.  2801.  2801.
  2802.  2806.  2806.  2807.  2807.  2812.  2815.  2816.  2821.  2819.
  2819.  2826.  2826.  2820.  2822.  2821.  2822.  2815.  2815.  2811.
  2811.  2807.  2800.  2799.  2795.  2790.  2788.  2785.  2781.  2778.
  2769.  2766.  2763.  2757.  2754.  2753.  2748.  2747.  2742.  2739.
  2738.  2737.  2736.  2736.  2735.  2734.  2731.  2732.  2730.  2732.
  2731.  2732.  2730.  2731.  2730.  2732.  2732.  2732.  2733.  2734.
  2740.  2739.  2739.  2740.  2744.  2743.  2746.  2747.  2751.  2750.
  2752.  2754.  2757.  2758.  2760.  2764.  2764.  2762.  2766.  2769.
  2769.  2775.  2774.  2776.  2779.  2782.  2784.  2784.  2787.  2790.
  2787.  2790.  2793.  2790.  2795.  2795.  2796.  2800.  2801.  2801.
  2799.  2802.  2801.  2799.  2800.  2799.  2797.  2797.  2792.  2786.
  2786.  2781.  2779.  2774.  2771.  2767.  2756.  2749.  2745.  2737.
  2733.  2725.  2715.  2711.  2699.  2691.  2687.  2678.  2671.  2669.
  2659.  2650.  2645.  2641.  2639.  2633.  2627.  2631.  2628.  2623.
  2625.  2619.  2618.  2618.  2615.  2614.  2618.  2617.  2615.  2613.
  2614.  2617.  2615.  2612.  2610.  2609.  2610.  2605.  2610.  2609.
  2612.  2613.  2614.  2615.  2620.  2623.  2627.  2626.  2628.  2630.
  2635.  2644.  2646.  2651.  2654.  2663.  2667.  2672.  2677.  2685.
  2690.  2696.  2704.  2708.  2714.  2716.  2722.  2725.  2732.  2736.
  2739.  2743.  2747.  2748.  2753.  2750.  2752.  2752.  2758.  2759.
  2756.  2756.  2758.  2759.  2759.  2758.  2757.  2760.  2761.  2778.
  2986.  2970.  2822.  2420.  2508.  2728.  2802.  2934.  2920.  3060.
  3335.  3502.  3667.  2754.  2748.  2745.  2740.  2740.  2735.  2735.
  2729.  2727.  2718.  2719.  2718.  2714.  2711.  2708.  2702.  2697.
  2693.  2690.  2680.  2673.  2664.  2646.  2642.  2623.  2607.  2598.
